* Measurement data measured by REW V5.20 Beta 53
* Source: C:\Users\Napie\Music\REW\Top Speakers\New Folder\9-SP.txt
* Format: Comma/Tab/Space delimited data
* Dated: May 26, 2020 3:13:42 PM
* REW Settings:
*  C-weighting compensation: Off
*  Target level: 75.0 dB
* Note: ; Measurement imported from C:\Users\Napie\Music\REW\Top Speakers\New Folder\9-SP.txt Format: Comma/Tab/Space delimited data 623 values loaded, 5 Hz to 39,792 Hz log spaced 
* Measurement: 9-SP
* Smoothing: None
* Frequency Step: 1/96 octave
* Start Frequency: 20.000 Hz
*
* Freq(Hz)	SPL(dB)	Phase(degrees)
20.000000	59.293839	-164.5786
20.144928	59.459595	-164.9480
20.290907	59.626850	-165.3406
20.437943	59.807552	-165.8149
20.586044	59.971893	-166.2587
20.735220	60.067543	-166.5508
20.885475	60.173851	-166.7768
21.036821	60.380230	-166.9643
21.189262	60.604725	-167.1667
21.342808	60.772545	-167.4331
21.497467	60.950760	-167.8045
21.653246	61.222336	-168.4012
21.810154	61.465729	-169.0352
21.968201	61.528881	-169.5621
22.127390	61.584908	-169.9686
22.287735	61.788410	-170.0860
22.449242	62.044781	-170.2358
22.611917	62.317036	-170.7345
22.775772	62.585682	-171.4310
22.940815	62.809784	-172.2884
23.107054	63.016735	-173.2806
23.274498	63.233154	-174.3937
23.443153	63.420776	-175.5544
23.613033	63.531582	-176.6926
23.784142	63.620926	-177.7851
23.956491	63.737507	-178.7518
24.130091	63.853870	-179.6939
24.304947	63.967438	179.2612
24.481071	64.051926	178.2712
24.658470	64.057076	177.4480
24.837156	64.051987	176.8028
25.017136	64.093307	176.4525
25.198421	64.168907	176.1923
25.381020	64.299927	175.8448
25.564941	64.442863	175.4414
25.750195	64.552261	174.9343
25.936790	64.654877	174.3847
26.124741	64.764900	173.8574
26.314051	64.874840	173.2949
26.504732	64.993912	172.6102
26.696796	65.085915	171.9557
26.890253	65.090073	171.4611
27.085112	65.088989	171.1093
27.281382	65.163322	170.9573
27.479073	65.258873	170.9130
27.678198	65.333076	170.9137
27.878765	65.430832	170.9280
28.080786	65.598297	170.9214
28.284271	65.789726	170.8401
28.489231	65.966507	170.6191
28.695675	66.152733	170.2576
28.903616	66.372559	169.7275
29.113064	66.587708	169.0471
29.324028	66.756981	168.2283
29.536524	66.912819	167.2623
29.750557	67.097122	166.1041
29.966141	67.240875	164.8734
30.183289	67.262314	163.6447
30.402010	67.241028	162.5083
30.622314	67.244438	161.5807
30.844217	67.228035	160.8588
31.067726	67.147797	160.3853
31.292856	67.069099	160.1382
31.519617	67.055939	160.1411
31.748020	67.068977	160.2997
31.978081	67.082100	160.5312
32.209808	67.118927	160.8236
32.443211	67.202621	161.1453
32.678310	67.308853	161.4736
32.915108	67.411240	161.7995
33.153625	67.538818	162.0497
33.393871	67.737282	162.1073
33.635857	67.930725	162.0941
33.879597	68.020370	162.1082
34.125103	68.119835	162.1050
34.372387	68.338715	162.1405
34.621464	68.591606	162.0094
34.872345	68.836044	161.4599
35.125042	69.051765	160.6851
35.379574	69.195168	159.7595
35.635948	69.293915	158.7891
35.894180	69.360550	157.9045
36.154285	69.396965	157.1061
36.416275	69.413254	156.3956
36.680161	69.397057	155.8995
36.945961	69.314255	155.7618
37.213688	69.240082	155.9325
37.483353	69.243568	156.4938
37.754974	69.309845	157.1919
38.028561	69.459694	157.8194
38.304131	69.654724	158.3174
38.581699	69.870193	158.5202
38.861279	70.085686	158.5421
39.142883	70.262756	158.4331
39.426529	70.430771	158.2224
39.712231	70.611122	157.9787
40.000000	70.789742	157.6326
40.289856	70.977684	157.0530
40.581814	71.120850	156.4927
40.875885	71.123650	156.1719
41.172089	71.120964	156.0590
41.470440	71.234512	156.3107
41.770950	71.409676	156.5817
42.073643	71.652489	156.5373
42.378525	71.901672	156.2985
42.685616	72.079948	155.8571
42.994934	72.240776	155.2689
43.306492	72.433540	154.5560
43.620308	72.593803	153.8121
43.936401	72.644196	153.1311
44.254780	72.671951	152.5348
44.575470	72.762161	152.0784
44.898483	72.844887	151.7554
45.223835	72.852249	151.5726
45.551544	72.861961	151.5459
45.881630	72.940231	151.7513
46.214108	73.054794	152.0156
46.548996	73.202454	152.1729
46.886307	73.361748	152.2759
47.226067	73.502403	152.3265
47.568283	73.647743	152.3121
47.912983	73.829002	152.1792
48.260181	73.992752	152.0522
48.609894	74.063652	152.0470
48.962143	74.137848	152.1368
49.316940	74.309265	152.3734
49.674313	74.510674	152.6356
50.034271	74.691895	152.8327
50.396843	74.894669	152.9240
50.762039	75.172920	152.7982
51.129883	75.440567	152.5764
51.500389	75.590317	152.3487
51.873581	75.738708	152.0975
52.249481	76.001083	151.8649
52.628101	76.275558	151.5606
53.009464	76.480736	151.0740
53.393593	76.668678	150.5060
53.780506	76.883400	149.8724
54.170223	77.068741	149.3188
54.562763	77.139389	149.0260
54.958145	77.225807	148.9051
55.356396	77.454620	149.0439
55.757530	77.753456	149.0921
56.161572	78.118889	148.6299
56.568542	78.469467	147.9512
56.978462	78.666664	147.2764
57.391350	78.877541	146.4128
57.807232	79.303711	145.2206
58.226128	79.705406	143.7587
58.648056	79.861595	141.8606
59.073048	79.913971	140.0637
59.501114	79.895775	139.0097
59.932281	79.913887	138.2253
60.366577	80.140915	137.5145
60.804020	80.413544	136.6796
61.244629	80.620560	135.3358
61.688435	80.775787	133.8486
62.135452	80.841553	132.4139
62.585712	80.861984	131.1599
63.039234	80.845078	130.3746
63.496040	80.861916	129.7739
63.956161	81.024734	129.1989
64.419617	81.218658	128.5583
64.886421	81.353844	127.6415
65.356621	81.465820	126.6478
65.830215	81.559525	125.6998
66.307251	81.637863	124.8186
66.787743	81.696831	124.0812
67.271713	81.761871	123.4431
67.759193	81.861923	122.9065
68.250206	81.982773	122.4069
68.744774	82.114937	121.9122
69.242928	82.272713	121.3261
69.744690	82.490669	120.5087
70.250084	82.698639	119.5589
70.759148	82.813301	118.5096
71.271896	82.907822	117.4200
71.788361	83.045746	116.3649
72.308571	83.173790	115.3300
72.832550	83.243263	114.3126
73.360321	83.302895	113.3517
73.891922	83.392311	112.5126
74.427376	83.490799	111.7145
74.966705	83.594116	110.8692
75.509949	83.691833	110.0634
76.057121	83.754379	109.3851
76.608261	83.834793	108.7433
77.163399	83.994522	108.1132
77.722557	84.179626	107.3836
78.285767	84.362900	106.3714
78.853058	84.524712	105.2672
79.424461	84.608597	104.2423
80.000000	84.697792	103.1751
80.579712	84.897614	101.9867
81.163628	85.086685	100.7175
81.751770	85.145172	99.3300
82.344177	85.171944	97.9797
82.940880	85.231232	96.8812
83.541901	85.308823	95.8211
84.147285	85.428886	94.6312
84.757050	85.539818	93.3864
85.371231	85.585876	92.0591
85.989868	85.602982	90.7915
86.612984	85.598755	89.7517
87.240616	85.602959	88.8367
87.872803	85.658112	88.0195
88.509560	85.733841	87.2376
89.150940	85.804710	86.4510
89.796967	85.897781	85.5659
90.447670	86.062416	84.4238
91.103088	86.206764	83.1776
91.763260	86.215584	81.9200
92.428215	86.207008	80.6754
93.097992	86.292816	79.5216
93.772614	86.378845	78.3912
94.452133	86.389755	77.1867
95.136566	86.379028	76.0751
95.825966	86.362823	75.2591
96.520363	86.378906	74.5375
97.219788	86.486656	73.8383
97.924286	86.637665	72.9731
98.633881	86.826324	71.6461
99.348625	86.982765	70.1052
100.068542	87.004585	68.4520
100.793686	86.983070	66.8318
101.524078	86.972260	65.5183
102.259766	86.982933	64.2293
103.000778	87.079544	62.7203
103.747162	87.154915	61.1461
104.498962	87.079933	59.5730
105.256203	86.983162	58.0248
106.018929	86.990608	56.5463
106.787186	86.983063	55.1396
107.561012	86.844833	53.7915
108.340446	86.689240	52.5928
109.125526	86.602242	51.7216
109.916290	86.552063	50.9035
110.712791	86.557617	49.8763
111.515060	86.552055	48.7773
112.323143	86.454430	47.6096
113.137085	86.325279	46.5161
113.956924	86.198166	45.6677
114.782700	86.074295	44.9845
115.614464	85.964104	44.4617
116.452255	85.873146	44.0437
117.296112	85.812035	43.6950
118.146095	85.776062	43.3497
119.002228	85.769936	42.9297
119.864563	85.775978	42.4364
120.733154	85.776001	41.8458
121.608040	85.776001	41.1576
122.489258	85.788559	40.3194
123.376869	85.776077	39.4630
124.270905	85.679344	38.7064
125.171425	85.575165	38.0411
126.078468	85.533478	37.5547
126.992081	85.517014	37.0761
127.912323	85.521744	36.4277
128.839233	85.517036	35.7154
129.772842	85.462135	34.9420
130.713242	85.383186	34.2412
131.660431	85.273445	33.8198
132.614502	85.191154	33.4641
133.575485	85.226631	33.0424
134.543427	85.277924	32.5121
135.518387	85.261566	31.7126
136.500412	85.210129	30.8665
137.489548	85.121277	30.1414
138.485855	85.017258	29.5443
139.489380	84.910667	29.1870
140.500168	84.828140	28.9206
141.518295	84.816177	28.6641
142.543793	84.827965	28.3231
143.576721	84.844177	27.6924
144.617142	84.828094	27.0214
145.665100	84.698837	26.5216
146.720642	84.569275	26.1060
147.783844	84.563545	25.7733
148.854752	84.569016	25.4747
149.933411	84.483231	25.1415
151.019897	84.397186	24.8326
152.114243	84.386246	24.6262
153.216522	84.396965	24.3987
154.326797	84.397003	24.0341
155.445114	84.397003	23.5870
156.571533	84.397003	23.0912
157.706116	84.396996	22.4965
158.848923	84.413177	21.7130
160.000000	84.397102	20.8929
161.159424	84.278580	20.1470
162.327255	84.138306	19.5113
163.503540	84.046814	19.0918
164.688354	83.966179	18.7886
165.881760	83.872162	18.5513
167.083801	83.793175	18.3356
168.294571	83.764305	18.0853
169.514099	83.742073	17.7848
170.742462	83.690659	17.3635
171.979736	83.621208	16.9302
173.225967	83.526619	16.5790
174.481232	83.426231	16.2836
175.745605	83.345627	16.0340
177.019119	83.259224	15.8743
178.301880	83.129318	15.8779
179.593933	83.017235	15.9478
180.895340	82.997574	16.0294
182.206177	82.994019	16.0670
183.526520	82.948128	15.9219
184.856430	82.879181	15.7882
186.195984	82.768562	15.8608
187.545227	82.672173	16.0016
188.904266	82.667671	16.1360
190.273132	82.672012	16.2657
191.651932	82.605316	16.3461
193.040726	82.534172	16.4427
194.439575	82.513786	16.6107
195.848572	82.500053	16.8363
197.267761	82.445122	17.1521
198.697250	82.414009	17.4723
200.137085	82.481178	17.7495
201.587372	82.571793	17.8998
203.048157	82.631744	17.7714
204.519531	82.671913	17.5199
206.001556	82.678253	17.2561
207.494324	82.672020	16.9647
208.997925	82.682236	16.6342
210.512405	82.672066	16.3615
212.037857	82.583778	16.2745
213.574371	82.508133	16.2700
215.122025	82.545296	16.3394
216.680893	82.610809	16.3243
218.251053	82.658157	15.9802
219.832581	82.672028	15.5552
221.425583	82.599365	15.2079
223.030121	82.507233	14.9674
224.646286	82.450317	14.9662
226.274170	82.414070	15.0508
227.913849	82.408188	15.1139
229.565399	82.413994	15.1470
231.228928	82.419373	15.0728
232.904510	82.414047	14.9912
234.592224	82.371132	14.9749
236.292191	82.328094	15.0308
238.004456	82.311882	15.2439
239.729126	82.327911	15.4515
241.466309	82.403015	15.5502
243.216080	82.499733	15.4446
244.978516	82.612610	14.8986
246.753738	82.671959	14.2319
248.541809	82.559525	13.6740
250.342850	82.414383	13.2659
252.156937	82.360420	13.1879
253.984161	82.328079	13.2498
255.824646	82.279243	13.3113
257.678467	82.241066	13.3987
259.545685	82.235558	13.5020
261.426483	82.240982	13.5908
263.320862	82.240997	13.6219
265.229004	82.240997	13.6250
267.150970	82.240997	13.6213
269.086853	82.240997	13.5931
271.036774	82.251740	13.4741
273.000824	82.241081	13.4309
274.979095	82.139343	13.6738
276.971710	82.069084	14.0090
278.978760	82.174370	14.3738
281.000336	82.323608	14.5798
283.036591	82.427673	14.3321
285.087585	82.499847	13.8855
287.153442	82.518127	13.3682
289.234283	82.500099	12.8702
291.330200	82.446800	12.5395
293.441284	82.386154	12.3324
295.567688	82.349960	12.2781
297.709503	82.328041	12.3048
299.866821	82.319000	12.3701
302.039795	82.327942	12.4160
304.228485	82.370872	12.3575
306.433044	82.413895	12.2324
308.653595	82.419380	12.0325
310.890228	82.414024	11.8126
313.143066	82.414001	11.6364
315.412231	82.414001	11.4695
317.697845	82.414001	11.2994
320.000000	82.414009	11.1235
322.318848	82.414001	10.9399
324.654510	82.414001	10.7327
327.007080	82.419373	10.4700
329.376709	82.414047	10.1978
331.763519	82.374832	9.9539
334.167603	82.328140	9.7316
336.589142	82.305702	9.5121
339.028198	82.269142	9.3693
341.484924	82.165611	9.3875
343.959473	82.069221	9.5185
346.451935	82.056488	9.7782
348.962463	82.068947	10.0563
351.491211	82.069000	10.2208
354.038239	82.069000	10.3516
356.603760	82.069000	10.4814
359.187866	82.069000	10.6215
361.790680	82.065315	10.8000
364.412354	82.068970	10.9984
367.053040	82.091347	11.2208
369.712860	82.127869	11.4275
372.391968	82.177208	11.5958
375.090454	82.240791	11.6779
377.808533	82.328934	11.6122
380.546265	82.413780	11.4177
383.303864	82.473061	11.0381
386.081451	82.499977	10.6381
388.879150	82.457146	10.3934
391.697144	82.414093	10.2164
394.535522	82.451485	10.1005
397.394501	82.499878	9.9755
400.274170	82.505379	9.7432
403.174744	82.500023	9.4808
406.096313	82.505371	9.2247
409.039062	82.500046	9.0016
412.003113	82.457146	8.8589
414.988647	82.414116	8.7712
417.995850	82.413803	8.7195
421.024811	82.414024	8.7308
424.075714	82.363472	8.8515
427.148743	82.331032	9.0065
430.244049	82.390686	9.1824
433.361786	82.477707	9.2391
436.502106	82.561394	8.9557
439.665161	82.611916	8.5583
442.851166	82.569382	8.1636
446.060242	82.493248	7.8856
449.292572	82.415901	7.9354
452.548340	82.360115	8.1382
455.827698	82.372726	8.4115
459.130798	82.413849	8.6852
462.457855	82.453987	8.8660
465.809021	82.507805	8.9419
469.184448	82.595596	8.8436
472.584381	82.671806	8.6517
476.008911	82.681694	8.3951
479.458252	82.672035	8.1606
482.932617	82.668304	8.0974
486.432159	82.680923	8.0482
489.957031	82.750153	7.8771
493.507477	82.811859	7.6647
497.083618	82.793541	7.4180
500.685699	82.759109	7.2255
504.313873	82.750443	7.2278
507.968323	82.762924	7.2778
511.649292	82.813873	7.2827
515.356934	82.878777	7.2153
519.091370	82.942123	6.9899
522.852966	82.993866	6.6910
526.641724	83.012657	6.3586
530.458008	83.016998	6.0439
534.301941	83.014503	5.8265
538.173706	83.016968	5.6625
542.073547	83.035767	5.5825
546.001648	83.079796	5.4427
549.958191	83.184952	5.0866
553.943420	83.281746	4.5799
557.957520	83.301010	3.8677
562.000671	83.276154	3.1572
566.073181	83.202332	2.6750
570.175171	83.126213	2.3110
574.306885	83.110519	2.0424
578.468567	83.103035	1.8297
582.660400	83.058723	1.6232
586.882568	83.017113	1.4306
591.135376	83.016991	1.2413
595.419006	83.017021	1.0626
599.733643	82.974152	0.8979
604.079590	82.931122	0.7485
608.456970	82.930992	0.6155
612.866089	82.931023	0.5023
617.307190	82.888153	0.4076
621.780457	82.845116	0.3471
626.286133	82.839622	0.3546
630.824463	82.844978	0.3759
635.395691	82.845001	0.3510
640.000000	82.845001	0.3301
644.637695	82.839630	0.3566
649.309021	82.844955	0.3929
654.014160	82.877098	0.4509
658.753418	82.930786	0.4243
663.527039	83.022064	0.1803
668.335205	83.102783	-0.1915
673.178284	83.113266	-0.6588
678.056396	83.103035	-1.1792
682.969849	83.121277	-1.7357
687.918945	83.111122	-2.2196
692.903870	82.994370	-2.4874
697.924927	82.882301	-2.6237
702.982422	82.896950	-2.6430
708.076477	82.930908	-2.6141
713.207520	82.888039	-2.6216
718.375732	82.853058	-2.6340
723.581360	82.902336	-2.6255
728.824707	82.967789	-2.6617
734.106079	82.993111	-2.8215
739.425720	83.016899	-3.0402
744.783936	83.062195	-3.2443
750.180908	83.120766	-3.5367
755.617065	83.204712	-4.0264
761.092529	83.275795	-4.6237
766.607727	83.280327	-5.2659
772.162903	83.275993	-5.9793
777.758301	83.324203	-6.7584
783.394287	83.361923	-7.6377
789.071045	83.342529	-8.7144
794.789001	83.276321	-9.7963
800.548340	83.142715	-10.7104
806.349487	82.988541	-11.4915
812.192627	82.862747	-12.0841
818.078125	82.739441	-12.5873
824.006226	82.616333	-13.1262
829.977295	82.470573	-13.5697
835.991699	82.258781	-13.8252
842.049622	82.039764	-13.8990
848.151428	81.871094	-13.7546
854.297485	81.714577	-13.4296
860.488098	81.531082	-12.9109
866.723572	81.379448	-12.3132
873.004211	81.335342	-11.7358
879.330322	81.311111	-11.2128
885.702332	81.234436	-10.8818
892.120483	81.132401	-10.5304
898.585144	80.996010	-9.9774
905.096680	80.862457	-9.2620
911.655396	80.768982	-8.3297
918.261597	80.707169	-7.2840
924.915710	80.683464	-6.2034
931.618042	80.689926	-5.1110
938.368896	80.721016	-4.0579
945.168762	80.775757	-3.0367
952.017822	80.845497	-2.0302
958.916504	80.947525	-1.1192
965.865234	81.109024	-0.3674
972.864319	81.292305	0.1884
979.914062	81.470222	0.4552
987.014954	81.637398	0.5380
994.167236	81.772476	0.5042
1001.371399	81.896561	0.3756
1008.627747	82.022926	0.2288
1015.936646	82.154427	-0.0336
1023.298584	82.317734	-0.5341
1030.713867	82.454651	-1.1240
1038.182739	82.480019	-1.6704
1045.705933	82.499840	-2.2435
1053.283447	82.628967	-2.8462
1060.916016	82.758522	-3.5507
1068.603882	82.799866	-4.4846
1076.347412	82.803047	-5.4849
1084.147095	82.795448	-6.4383
1092.003296	82.759178	-7.3182
1099.916382	82.670807	-8.0492
1107.886841	82.573387	-8.6667
1115.915039	82.512215	-9.1494
1124.001343	82.458191	-9.5934
1132.146362	82.405609	-10.1313
1140.350342	82.328369	-10.6332
1148.613770	82.187454	-11.0612
1156.937134	82.015762	-11.2688
1165.320801	81.814285	-11.0449
1173.765137	81.640640	-10.5447
1182.270752	81.566498	-9.7922
1190.838013	81.551956	-8.9743
1199.467285	81.583801	-8.2828
1208.159180	81.651672	-7.7299
1216.913940	81.745239	-7.3884
1225.732178	81.851601	-7.2650
1234.614380	81.964172	-7.4316
1243.560913	82.053734	-7.7645
1252.572266	82.074112	-8.1789
1261.648926	82.069046	-8.6272
1270.791382	82.074432	-9.0234
1280.000000	82.069054	-9.3986
1289.275391	82.039398	-9.7648
1298.618042	81.997200	-10.0947
1308.028320	81.953529	-10.3821
1317.506836	81.897278	-10.5754
1327.054077	81.804626	-10.5911
1336.670410	81.724243	-10.5184
1346.356567	81.718536	-10.4146
1356.112793	81.723999	-10.2954
1365.939697	81.681183	-10.2106
1375.837891	81.638153	-10.1145
1385.807739	81.632622	-9.9562
1395.849854	81.637970	-9.8005
1405.964844	81.643372	-9.7383
1416.152954	81.638046	-9.6425
1426.415039	81.584435	-9.3765
1436.751465	81.552025	-9.0552
1447.162720	81.622269	-8.7137
1457.649414	81.723579	-8.4587
1468.212158	81.802879	-8.4237
1478.851440	81.883690	-8.5641
1489.567871	81.986130	-8.8986
1500.361816	82.068756	-9.3679
1511.234131	82.085953	-9.9485
1522.185059	82.069130	-10.5523
1533.215454	82.042374	-11.1146
1544.325806	81.983353	-11.5425
1555.516602	81.854095	-11.7127
1566.788574	81.724487	-11.6508
1578.142090	81.659622	-11.2841
1589.578003	81.637993	-10.7863
1601.096680	81.659256	-10.2747
1612.698975	81.723640	-9.8475
1624.385254	81.847542	-9.6530
1636.156250	81.982422	-9.6566
1648.012451	82.079460	-9.9156
1659.954590	82.154770	-10.3015
1671.983398	82.202095	-10.6937
1684.099243	82.240829	-11.1212
1696.302856	82.293823	-11.5611
1708.594971	82.344780	-12.0486
1720.976196	82.385841	-12.6232
1733.447144	82.413918	-13.2501
1746.008423	82.424812	-13.9308
1758.660645	82.414093	-14.5963
1771.404663	82.366539	-15.1768
1784.240967	82.310226	-15.6752
1797.170288	82.269135	-16.0404
1810.193359	82.241081	-16.3657
1823.310791	82.237801	-16.7205
1836.523193	82.240990	-17.1282
1849.831421	82.242157	-17.6724
1863.236084	82.223152	-18.2435
1876.737793	82.150879	-18.7779
1890.337524	82.061394	-19.2194
1904.035645	81.974831	-19.4454
1917.833008	81.907211	-19.5905
1931.730469	81.892380	-19.7257
1945.728638	81.896957	-19.9238
1959.828125	81.905991	-20.3256
1974.029907	81.897110	-20.7990
1988.334473	81.828079	-21.2662
2002.742798	81.743347	-21.7014
2017.255493	81.681870	-22.0426
2031.873291	81.619278	-22.3210
2046.597168	81.534363	-22.5337
2061.427734	81.455315	-22.7222
2076.365479	81.418892	-22.9338
2091.411865	81.379211	-23.1481
2106.566895	81.293602	-23.4035
2121.832031	81.187469	-23.5696
2137.207764	81.060806	-23.5006
2152.694824	80.948380	-23.2782
2168.294189	80.889908	-22.8914
2184.006592	80.871002	-22.4758
2199.832764	80.896019	-22.1520
2215.773682	80.947746	-21.9564
2231.830078	81.018204	-21.9957
2248.002686	81.083755	-22.1790
2264.292725	81.105560	-22.4518
2280.700684	81.120918	-22.8093
2297.227539	81.166122	-23.2292
2313.874268	81.206863	-23.7109
2330.641602	81.207520	-24.2415
2347.530273	81.206978	-24.8342
2364.541504	81.239944	-25.4537
2381.676025	81.284775	-26.2329
2398.934570	81.347389	-27.3324
2416.318359	81.378983	-28.6387
2433.827881	81.320366	-30.1301
2451.464355	81.207558	-31.6865
2469.228760	81.060699	-33.1869
2487.121826	80.869919	-34.6111
2505.144531	80.623428	-35.8886
2523.297852	80.346306	-37.0510
2541.582764	80.076492	-38.1276
2560.000000	79.764542	-39.0562
2578.550781	79.369797	-39.8906
2597.236084	78.902367	-40.3114
2616.056641	78.313126	-39.9512
2635.013672	77.739296	-38.9983
2654.108154	77.337051	-37.4419
2673.340820	77.004372	-35.5231
2692.713135	76.686142	-33.5569
2712.225586	76.393349	-31.3154
2731.879395	76.080505	-28.5669
2751.675781	75.862679	-25.6260
2771.615479	75.893524	-22.6872
2791.699707	76.015366	-19.8910
2811.929688	76.093452	-17.4835
2832.305908	76.206345	-15.3414
2852.830078	76.401733	-13.3579
2873.502930	76.641869	-11.7241
2894.325439	76.933533	-10.7039
2915.298828	77.189003	-9.9819
2936.424316	77.271301	-9.3316
2957.702881	77.332664	-8.7416
2979.135742	77.519691	-8.0897
3000.723633	77.718178	-7.4855
3022.468262	77.833069	-7.0096
3044.370117	77.948402	-6.6295
3066.430908	78.143951	-6.3340
3088.651611	78.341179	-6.1367
3111.033203	78.465096	-6.0663
3133.577148	78.581421	-6.0669
3156.284180	78.740005	-6.0444
3179.156006	78.916122	-6.1401
3202.193359	79.109459	-6.4799
3225.397949	79.295158	-7.0209
3248.770508	79.445618	-7.7859
3272.312500	79.568512	-8.7016
3296.024902	79.658958	-9.6873
3319.909180	79.727722	-10.7876
3343.966797	79.799995	-12.0549
3368.198486	79.828018	-13.3885
3392.605713	79.756294	-14.7451
3417.189941	79.631660	-16.0026
3441.952393	79.479485	-16.9949
3466.894287	79.310776	-17.8097
3492.016846	79.151871	-18.4739
3517.321289	78.981827	-19.0088
3542.809326	78.791817	-19.4877
3568.481934	78.571114	-19.7802
3594.340576	78.293671	-19.8164
3620.386719	77.996437	-19.4846
3646.621582	77.682655	-18.5502
3673.046387	77.427979	-17.3104
3699.662842	77.350998	-15.9681
3726.472168	77.328079	-14.5824
3753.475586	77.242851	-13.2860
3780.675049	77.187119	-12.0574
3808.071289	77.246696	-10.9144
3835.666016	77.327644	-9.8678
3863.460938	77.335281	-8.9350
3891.457275	77.353813	-8.1127
3919.656250	77.465652	-7.3928
3948.059814	77.585480	-6.8074
3976.668945	77.637863	-6.4225
4005.485596	77.671837	-6.1293
4034.510986	77.720657	-5.8414
4063.746582	77.758858	-5.5554
4093.194336	77.759087	-5.2285
4122.855469	77.758972	-4.8937
4152.730957	77.801765	-4.5627
4182.823730	77.844841	-4.2584
4213.133789	77.855751	-4.0491
4243.664062	77.845100	-3.8103
4274.415527	77.802231	-3.4259
4305.389648	77.759178	-2.9357
4336.588379	77.751930	-2.3247
4368.013184	77.758949	-1.6443
4399.665527	77.765251	-0.9324
4431.547363	77.785858	-0.2155
4463.660156	77.843010	0.4452
4496.005371	77.900742	1.1145
4528.585449	77.910820	1.8411
4561.401367	77.930832	2.6162
4594.455078	78.009209	3.5165
4627.748535	78.127327	4.3354
4661.283203	78.309227	4.8221
4695.060547	78.474327	5.1794
4729.083008	78.511772	5.5134
4763.352051	78.533836	5.8721
4797.869141	78.640793	6.3698
4832.636719	78.762405	6.9122
4867.655762	78.840034	7.4597
4902.928711	78.935440	7.9608
4938.457520	79.122063	8.3356
4974.243652	79.309196	8.6288
5010.289062	79.405113	8.8048
5046.595703	79.482605	9.0256
5083.165527	79.568779	9.5746
5120.000000	79.712059	10.0571
5157.101562	80.034508	10.0991
5194.472168	80.343674	9.9075
5232.113281	80.422028	9.5114
5270.027344	80.459755	9.0811
5308.216309	80.613609	8.8510
5346.681641	80.775246	8.6609
5385.426270	80.863350	8.4090
5424.451172	80.947525	8.1464
5463.758789	81.087631	7.9137
5503.351562	81.235275	7.6445
5543.230957	81.357674	7.2468
5583.399414	81.465492	6.8340
5623.859375	81.544403	6.5352
5664.611816	81.637444	6.2158
5705.660156	81.809593	5.7823
5747.005859	81.982178	5.2351
5788.650879	82.084633	4.4915
5830.597656	82.154701	3.7090
5872.848633	82.204216	3.0323
5915.405762	82.242805	2.4230
5958.271484	82.285408	1.8959
6001.447266	82.327789	1.4303
6044.936523	82.370476	1.0032
6088.740234	82.413788	0.6356
6132.861816	82.448227	0.3816
6177.303223	82.503632	0.1215
6222.066406	82.631073	-0.2621
6267.154297	82.758423	-0.7245
6312.568359	82.812057	-1.3004
6358.312012	82.844841	-1.8673
6404.386719	82.885208	-2.2812
6450.795898	82.935692	-2.6382
6497.541016	83.008575	-2.9555
6544.625000	83.102470	-3.3298
6592.049805	83.236687	-3.8950
6639.818359	83.361435	-4.5593
6687.933594	83.415283	-5.2980
6736.396973	83.450813	-6.0413
6785.211426	83.504951	-6.6796
6834.379883	83.565674	-7.3077
6883.904785	83.637680	-7.9960
6933.788574	83.706657	-8.7131
6984.033691	83.753395	-9.4482
7034.642578	83.796768	-10.2080
7085.618652	83.856445	-10.9937
7136.963867	83.911751	-11.8116
7188.681152	83.946053	-12.6874
7240.773438	83.965935	-13.5665
7293.243164	83.969383	-14.3994
7346.092773	83.966026	-15.1960
7399.325684	83.966003	-15.9429
7452.944336	83.966003	-16.6614
7506.951172	83.966003	-17.3651
7561.350098	83.966003	-18.0633
7616.142578	83.968124	-18.7709
7671.332031	83.966034	-19.4843
7726.921875	83.956276	-20.2283
7782.914551	83.932167	-20.9315
7839.312500	83.874199	-21.5203
7896.119629	83.817261	-22.0245
7953.337891	83.797867	-22.4276
8010.971191	83.792999	-22.7991
8069.021973	83.791496	-23.2131
8127.493164	83.792992	-23.6407
8186.388672	83.792999	-24.0797
8245.710938	83.792999	-24.5216
8305.461914	83.792999	-24.9586
8365.647461	83.792999	-25.3878
8426.267578	83.792999	-25.8102
8487.328125	83.792999	-26.2070
8548.831055	83.787636	-26.5442
8610.779297	83.792923	-26.8673
8673.176758	83.830322	-27.2020
8736.026367	83.878723	-27.5748
8799.331055	83.921463	-28.0237
8863.094727	83.965767	-28.5391
8927.320312	84.021111	-29.1490
8992.010742	84.064819	-29.7777
9057.170898	84.057365	-30.3309
9122.802734	84.057907	-30.8900
9188.910156	84.140076	-31.5096
9255.497070	84.223625	-32.1802
9322.566406	84.228592	-32.9285
9390.121094	84.223984	-33.6979
9458.166016	84.265236	-34.4053
9526.704102	84.316719	-35.1548
9595.738281	84.362602	-36.0452
9665.273438	84.396858	-37.0136
9735.311523	84.407883	-38.0518
9805.857422	84.397118	-39.0933
9876.915039	84.355209	-40.0667
9948.487305	84.303291	-40.9781
10020.578125	84.261909	-41.7928
10093.191406	84.224190	-42.5637
10166.331055	84.193916	-43.3456
10240.000000	84.159203	-44.1000
10314.203125	84.102608	-44.8116
10388.944336	84.044266	-45.4650
10464.226562	83.998032	-46.0149
10540.054688	83.966148	-46.5349
10616.432617	83.961121	-47.0806
10693.363281	83.965965	-47.6624
10770.852539	83.966003	-48.3156
10848.902344	83.966003	-49.0200
10927.517578	83.966003	-49.7603
11006.703125	83.966003	-50.5565
11086.461914	83.971931	-51.4390
11166.798828	83.966087	-52.3638
11247.718750	83.925957	-53.3093
11329.223633	83.871300	-54.2363
11411.320312	83.815056	-55.0929
11494.011719	83.756310	-55.8958
11577.301758	83.693443	-56.6186
11661.195312	83.641235	-57.3389
11745.697266	83.628922	-58.1388
11830.811523	83.612152	-58.9813
11916.542969	83.544373	-59.8796
12002.894531	83.459488	-60.7622
12089.873047	83.379890	-61.5603
12177.480469	83.295494	-62.2772
12265.723633	83.191681	-62.8630
12354.606445	83.103394	-63.4091
12444.132812	83.079269	-63.9802
12534.308594	83.065109	-64.6084
12625.136719	83.017365	-65.3872
12716.624023	82.950401	-66.1958
12808.773438	82.861038	-66.9495
12901.591797	82.759598	-67.6294
12995.082031	82.650520	-68.1732
13089.250000	82.548470	-68.6279
13184.099609	82.473518	-69.0042
13279.636719	82.414276	-69.3512
13375.867188	82.368301	-69.7334
13472.793945	82.328232	-70.1168
13570.422852	82.279396	-70.4827
13668.759766	82.241173	-70.8468
13767.809570	82.230125	-71.1923
13867.577148	82.240868	-71.5993
13968.067383	82.278854	-72.1325
14069.285156	82.327698	-72.8224
14171.237305	82.381546	-73.7588
14273.927734	82.413918	-74.8279
14377.362305	82.382744	-75.9626
14481.546875	82.328316	-77.1090
14586.486328	82.278587	-78.1587
14692.185547	82.230270	-79.2078
14798.651367	82.197327	-80.3267
14905.888672	82.155296	-81.4891
15013.902344	82.082420	-82.7294
15122.700195	81.983635	-83.9354
15232.285156	81.841415	-84.9779
15342.664062	81.701767	-85.9384
15453.843750	81.620094	-86.8270
15565.829102	81.552368	-87.7319
15678.625000	81.474274	-88.7882
15792.239258	81.379570	-89.8662
15906.675781	81.237282	-90.8512
16021.942383	81.097687	-91.8276
16138.043945	81.025757	-92.8514
16254.986328	80.948540	-93.8989
16372.777344	80.789780	-94.9704
16491.421875	80.620903	-96.0471
16610.923828	80.508934	-97.0895
16731.294922	80.394730	-98.1587
16852.535156	80.238541	-99.3692
16974.656250	80.046280	-100.5244
17097.662109	79.784813	-101.4080
17221.558594	79.532402	-102.1844
17346.353516	79.395210	-102.9517
17472.052734	79.259941	-103.7034
17598.662109	79.017975	-104.5128
17726.189453	78.755516	-105.2382
17854.640625	78.524353	-105.6781
17984.021484	78.324020	-106.0796
18114.341797	78.196884	-106.6478
18245.605469	78.064880	-107.3188
18377.820312	77.851784	-108.1769
18510.994141	77.591675	-108.9768
18645.132812	77.269112	-109.4220
18780.242188	76.958595	-109.7414
18916.332031	76.776299	-110.0865
19053.408203	76.584297	-110.4062
19191.476562	76.257545	-110.8398
19330.546875	75.867294	-110.9637
19470.623047	75.393768	-110.2458
19611.714844	74.988930	-109.1352
19753.830078	74.862076	-107.8234
19896.974609	74.826118	-106.5719
