* Measurement data measured by REW V5.20 Beta 53
* Source: C:\Users\Napie\Music\REW\Top Speakers\New Folder\1-SP.txt
* Format: Comma/Tab/Space delimited data
* Dated: May 26, 2020 2:35:48 PM
* REW Settings:
*  C-weighting compensation: Off
*  Target level: 75.0 dB
* Note: ; Measurement imported from C:\Users\Napie\Music\REW\Top Speakers\New Folder\1-SP.txt Format: Comma/Tab/Space delimited data 623 values loaded, 5 Hz to 39,792 Hz log spaced 
* Measurement: 1-SP
* Smoothing: None
* Frequency Step: 1/96 octave
* Start Frequency: 20.000 Hz
*
* Freq(Hz)	SPL(dB)	Phase(degrees)
20.000000	58.573803	-124.7893
20.144928	58.798122	-125.6802
20.290907	58.986858	-126.5603
20.437943	59.054649	-127.2576
20.586044	59.114944	-127.8167
20.735220	59.282345	-128.1861
20.885475	59.468788	-128.4827
21.036821	59.610020	-128.8400
21.189262	59.748821	-129.1577
21.342808	59.911724	-129.3814
21.497467	60.083786	-129.5059
21.653246	60.228592	-129.3821
21.810154	60.436657	-129.3868
21.968201	60.882137	-130.0005
22.127390	61.278656	-130.7662
22.287735	61.267307	-131.3974
22.449242	61.236977	-131.8577
22.611917	61.541443	-131.8301
22.775772	61.930508	-131.8708
22.940815	62.265148	-132.5844
23.107054	62.563641	-133.5127
23.274498	62.761360	-134.3265
23.443153	62.968685	-135.2387
23.613033	63.329033	-136.3539
23.784142	63.679726	-137.6708
23.956491	63.872601	-139.3010
24.130091	64.005867	-141.0090
24.304947	64.143288	-142.6051
24.481071	64.240906	-144.0622
24.658470	64.251503	-145.2930
24.837156	64.247986	-146.2898
25.017136	64.292679	-146.9442
25.198421	64.370911	-147.4705
25.381020	64.502563	-148.0539
25.564941	64.645866	-148.6744
25.750195	64.761765	-149.4128
25.936790	64.861885	-150.1511
26.124741	64.936775	-150.7860
26.314051	65.010880	-151.3542
26.504732	65.110550	-151.8385
26.696796	65.220856	-152.2984
26.890253	65.337921	-152.7934
27.085112	65.454872	-153.3064
27.281382	65.568497	-153.8793
27.479073	65.663887	-154.3954
27.678198	65.703453	-154.7341
27.878765	65.751900	-154.9488
28.080786	65.871117	-154.9800
28.284271	66.032745	-155.0468
28.489231	66.251564	-155.4013
28.695675	66.459740	-155.8873
28.903616	66.568550	-156.4615
29.113064	66.654869	-157.0342
29.324028	66.777084	-157.4737
29.536524	66.902847	-157.8616
29.750557	67.010880	-158.2197
29.966141	67.125862	-158.5976
30.183289	67.285370	-159.0773
30.402010	67.429848	-159.5824
30.622314	67.495003	-160.1078
30.844217	67.531967	-160.5206
31.067726	67.566757	-160.6561
31.292856	67.610924	-160.6032
31.519617	67.686203	-160.3792
31.748020	67.787865	-160.0345
31.978081	67.910446	-159.5704
32.209808	68.077744	-159.1515
32.443211	68.348434	-159.0071
32.678310	68.612686	-158.9451
32.915108	68.722557	-158.8077
33.153625	68.849785	-158.7181
33.393871	69.189690	-158.7788
33.635857	69.525551	-158.8948
33.879597	69.626060	-159.0143
34.125103	69.727806	-159.1089
34.372387	70.046982	-159.0324
34.621464	70.416443	-159.0867
34.872345	70.725273	-159.5808
35.125042	71.018646	-160.3509
35.379574	71.329094	-161.4093
35.635948	71.584740	-162.5337
35.894180	71.675346	-163.4896
36.154285	71.747871	-164.3249
36.416275	71.947914	-164.9371
36.680161	72.170662	-165.5430
36.945961	72.364166	-166.4410
37.213688	72.513817	-167.2859
37.483353	72.537521	-167.7461
37.754974	72.585861	-168.0755
38.028561	72.847092	-168.4045
38.304131	73.127655	-168.7755
38.581699	73.252602	-169.3556
38.861279	73.351837	-169.9013
39.142883	73.499886	-170.1141
39.426529	73.689713	-170.3226
39.712231	73.973160	-170.8058
40.000000	74.247627	-171.4180
40.289856	74.399193	-172.1811
40.581814	74.512848	-172.8702
40.875885	74.623695	-173.1773
41.172089	74.768738	-173.3717
41.470440	75.024803	-173.6073
41.770950	75.307541	-173.9254
42.073643	75.543640	-174.4485
42.378525	75.775673	-175.0870
42.685616	76.032707	-175.8011
42.994934	76.282654	-176.5629
43.306492	76.484703	-177.3069
43.620308	76.693665	-178.1067
43.936401	76.976616	-179.0170
44.254780	77.256584	179.9697
44.575470	77.459259	178.8200
44.898483	77.642708	177.6010
45.223835	77.855179	176.3713
45.551544	78.052742	175.1228
45.881630	78.194870	173.8612
46.214108	78.318810	172.6029
46.548996	78.467911	171.3188
46.886307	78.583862	170.1517
47.226067	78.583954	169.2458
47.568283	78.583969	168.5679
47.912983	78.694519	168.2019
48.260181	78.849716	167.9404
48.609894	79.015968	167.5965
48.962143	79.205704	167.1907
49.316940	79.428146	166.6735
49.674313	79.659630	166.0700
50.034271	79.869736	165.3983
50.396843	80.087646	164.6302
50.762039	80.347267	163.7365
51.129883	80.604568	162.7398
51.500389	80.811150	161.6592
51.873581	81.013634	160.4762
52.249481	81.264702	159.1645
52.628101	81.498650	157.7664
53.009464	81.648018	156.2933
53.393593	81.769791	154.8125
53.780506	81.915642	153.3665
54.170223	82.034843	152.0410
54.562763	82.061600	150.9450
54.958145	82.091927	150.0513
55.356396	82.216125	149.4255
55.757530	82.386688	148.8978
56.161572	82.567352	148.4122
56.568542	82.813522	147.6925
56.978462	83.235809	146.3677
57.391350	83.633369	144.6655
57.807232	83.783936	142.5926
58.226128	83.859886	140.4426
58.648056	83.982368	138.5524
59.073048	84.085861	136.8008
59.501114	84.124008	135.1762
59.932281	84.158920	133.6835
60.366577	84.241013	132.4064
60.804020	84.359772	131.0974
61.244629	84.551918	129.4858
61.688435	84.725754	127.7221
62.135452	84.775345	125.8064
62.585712	84.779015	123.9211
63.039234	84.778061	122.3040
63.496040	84.778999	120.7914
63.956161	84.817184	119.2814
64.419617	84.846962	117.8245
64.886421	84.816132	116.4338
65.356621	84.779060	115.1223
65.830215	84.785416	113.9263
66.307251	84.797981	112.7891
66.787743	84.789696	111.6540
67.271713	84.779015	110.5569
67.759193	84.777809	109.5219
68.250206	84.778999	108.5287
68.744774	84.778999	107.5598
69.242928	84.779007	106.6306
69.744690	84.778374	105.7449
70.250084	84.778999	104.9195
70.759148	84.774559	104.2017
71.271896	84.788948	103.5033
71.788361	84.858475	102.7620
72.308571	84.939850	101.9467
72.832550	85.001328	100.9567
73.360321	85.043945	99.9379
73.891922	85.039444	99.0435
74.427376	85.043961	98.1527
74.966705	85.132324	97.2012
75.509949	85.220863	96.1700
76.057121	85.242004	94.9382
76.608261	85.221085	93.7482
77.163399	85.138977	92.8412
77.722557	85.062103	92.1023
78.285767	85.066261	91.5556
78.853058	85.104912	91.0241
79.424461	85.165573	90.2994
80.000000	85.220909	89.4976
80.579712	85.228256	88.6457
81.163628	85.221016	87.8046
81.751770	85.221001	87.0534
82.344177	85.220993	86.3643
82.940880	85.216064	85.7487
83.541901	85.220985	85.1671
84.147285	85.254295	84.6018
84.757050	85.299911	84.0002
85.371231	85.353836	83.2787
85.989868	85.397934	82.5136
86.612984	85.404129	81.7394
87.240616	85.398026	80.9984
87.872803	85.398003	80.3481
88.509560	85.398010	79.7771
89.150940	85.388947	79.3235
89.796967	85.397957	78.8969
90.447670	85.468338	78.4079
91.103088	85.542870	77.8911
91.763260	85.560471	77.3345
92.428215	85.574959	76.7890
93.097992	85.624809	76.3486
93.772614	85.695839	75.8730
94.452133	85.801849	75.2147
95.136566	85.896851	74.4885
95.825966	85.919968	73.7336
96.520363	85.928978	73.0314
97.219788	85.956291	72.5573
97.924286	86.017830	72.0701
98.633881	86.173225	71.3488
99.348625	86.323738	70.5047
100.068542	86.356026	69.5580
100.793686	86.371948	68.5645
101.524078	86.463264	67.5953
102.259766	86.548828	66.6254
103.000778	86.551460	65.6498
103.747162	86.548988	64.6789
104.498962	86.615425	63.7437
105.256203	86.686882	62.7768
106.018929	86.715088	61.6888
106.787186	86.725990	60.5751
107.561012	86.728439	59.5208
108.340446	86.726006	58.4697
109.125526	86.737053	57.3564
109.916290	86.726059	56.2928
110.712791	86.637680	55.3835
111.515060	86.549156	54.5855
112.323143	86.537933	53.9355
113.137085	86.548973	53.2994
113.956924	86.553001	52.5272
114.782700	86.549034	51.7011
115.614464	86.529694	50.8113
116.452255	86.485115	49.9854
117.296112	86.380211	49.3770
118.146095	86.283165	48.8998
119.002228	86.270363	48.5540
119.864563	86.282951	48.2339
120.733154	86.282997	47.8062
121.608040	86.282990	47.3539
122.489258	86.282997	46.9043
123.376869	86.282997	46.4929
124.270905	86.266388	46.2280
125.171425	86.282921	45.9196
126.078468	86.415718	45.3936
126.992081	86.548767	44.7086
127.912323	86.565636	43.8075
128.839233	86.549049	42.8648
129.772842	86.549004	42.0717
130.713242	86.549004	41.3245
131.660431	86.549004	40.5823
132.614502	86.549004	39.8450
133.575485	86.549004	39.1060
134.543427	86.549004	38.3445
135.518387	86.555435	37.5212
136.500412	86.549034	36.6855
137.489548	86.507797	35.8430
138.485855	86.446175	35.0857
139.489380	86.358253	34.5426
140.500168	86.283119	34.1099
141.518295	86.272797	33.7484
142.543793	86.282951	33.3900
143.576721	86.282997	32.9334
144.617142	86.282997	32.4391
145.665100	86.282997	31.9347
146.720642	86.282997	31.4184
147.783844	86.282997	30.8959
148.854752	86.282997	30.3714
149.933411	86.282997	29.8434
151.019897	86.282997	29.3332
152.114243	86.274940	28.8874
153.216522	86.282936	28.4294
154.326797	86.338768	27.9249
155.445114	86.411835	27.2926
156.571533	86.488411	26.4186
157.706116	86.548904	25.3656
158.848923	86.576309	24.0826
160.000000	86.549149	22.7970
161.159424	86.408318	21.7339
162.327255	86.249329	20.8507
163.503540	86.169960	20.2148
164.688354	86.106148	19.7189
165.881760	86.008781	19.2932
167.083801	85.929169	18.8911
168.294571	85.927795	18.4312
169.514099	85.929024	17.9492
170.742462	85.851410	17.4461
171.979736	85.771187	16.9453
173.225967	85.757141	16.4937
174.481232	85.752014	16.0221
175.745605	85.712479	15.4572
177.019119	85.664116	14.8574
178.301880	85.625107	14.2478
179.593933	85.575150	13.6574
180.895340	85.488716	13.1272
182.206177	85.399200	12.6471
183.526520	85.338699	12.2448
184.856430	85.286118	11.8479
186.195984	85.238434	11.3519
187.545227	85.173187	10.8800
188.904266	85.048500	10.5214
190.273132	84.919296	10.2765
191.651932	84.834381	10.2139
193.040726	84.771156	10.2189
194.439575	84.726875	10.1847
195.848572	84.690102	10.1541
197.267761	84.641068	10.1417
198.697250	84.602066	10.1271
200.137085	84.596489	10.1044
201.587372	84.601974	10.0432
203.048157	84.601997	9.9007
204.519531	84.601990	9.7086
206.001556	84.601997	9.4860
207.494324	84.601997	9.2286
208.997925	84.601997	8.9434
210.512405	84.601990	8.6168
212.037857	84.605179	8.2354
213.574371	84.602020	7.8071
215.122025	84.587563	7.2996
216.680893	84.551140	6.8212
218.251053	84.462517	6.4855
219.832581	84.375221	6.2466
221.425583	84.344551	6.1332
223.030121	84.335999	6.0342
224.646286	84.333557	5.8417
226.274170	84.335991	5.5739
227.913849	84.343239	5.1865
229.565399	84.336044	4.7590
231.228928	84.281975	4.3605
232.904510	84.220169	3.9791
234.592224	84.193382	3.6169
236.292191	84.159119	3.3007
238.004456	84.069550	3.0654
239.729126	83.982193	2.8894
241.466309	83.957047	2.7719
243.216080	83.940056	2.6842
244.978516	83.882416	2.5878
246.753738	83.827133	2.5112
248.541809	83.808968	2.4927
250.342850	83.805000	2.4641
252.156937	83.803627	2.3616
253.984161	83.804993	2.2085
255.824646	83.805000	2.0139
257.678467	83.805000	1.7567
259.545685	83.816055	1.3774
261.426483	83.805077	1.0009
263.320862	83.716759	0.7474
265.229004	83.628197	0.5734
267.150970	83.616928	0.5219
269.086853	83.627960	0.4503
271.036774	83.638741	0.1661
273.000824	83.628082	-0.1401
274.979095	83.542580	-0.3281
276.971710	83.456207	-0.4358
278.978760	83.442749	-0.4167
281.000336	83.450966	-0.3860
283.036591	83.450684	-0.4644
285.087585	83.450996	-0.5896
287.153442	83.450996	-0.7381
289.234283	83.450996	-0.9125
291.330200	83.450996	-1.1071
293.441284	83.450996	-1.3234
295.567688	83.450996	-1.5592
297.709503	83.450996	-1.8192
299.866821	83.450996	-2.1016
302.039795	83.450996	-2.4249
304.228485	83.457306	-2.8263
306.433044	83.451042	-3.2498
308.653595	83.405388	-3.6562
310.890228	83.350143	-4.0310
313.143066	83.311287	-4.3344
315.412231	83.274101	-4.6042
317.697845	83.230934	-4.8708
320.000000	83.186127	-5.1183
322.318848	83.141632	-5.3413
324.654510	83.097137	-5.5385
327.007080	83.050446	-5.6975
329.376709	83.009117	-5.8456
331.763519	82.983253	-5.9930
334.167603	82.963058	-6.1783
336.589142	82.950111	-6.4785
339.028198	82.920128	-6.7881
341.484924	82.831207	-7.0200
343.959473	82.737236	-7.1946
346.451935	82.694855	-7.2968
348.962463	82.655128	-7.3479
351.491211	82.575050	-7.3821
354.038239	82.492226	-7.3472
356.603760	82.430466	-7.1685
359.187866	82.389084	-6.9476
361.790680	82.382561	-6.7604
364.412354	82.388977	-6.6133
367.053040	82.389000	-6.5500
369.712860	82.389000	-6.5340
372.391968	82.389000	-6.5424
375.090454	82.389000	-6.5769
377.808533	82.389000	-6.6317
380.546265	82.389000	-6.7068
383.303864	82.389000	-6.7996
386.081451	82.388992	-6.9116
388.879150	82.389000	-7.0424
391.697144	82.389000	-7.1955
394.535522	82.389000	-7.3702
397.394501	82.389000	-7.5793
400.274170	82.390938	-7.8306
403.174744	82.389015	-8.1389
406.096313	82.388161	-8.5714
409.039062	82.358162	-8.9808
412.003113	82.244522	-9.2362
414.988647	82.124352	-9.3549
417.995850	82.069504	-9.2581
421.024811	82.043053	-9.1055
424.075714	82.033951	-9.0344
427.148743	82.034981	-9.0368
430.244049	82.045547	-9.2025
433.361786	82.035095	-9.3745
436.502106	81.941246	-9.3860
439.665161	81.858185	-9.3541
442.851166	81.896835	-9.3254
446.060242	81.946884	-9.3497
449.292572	81.913712	-9.5444
452.548340	81.858185	-9.7534
455.827698	81.814133	-9.8418
459.130798	81.770142	-9.8621
462.457855	81.720146	-9.8069
465.809021	81.681091	-9.7223
469.184448	81.675430	-9.6383
472.584381	81.680977	-9.5950
476.008911	81.684555	-9.6599
479.458252	81.681030	-9.7805
482.932617	81.660088	-9.9454
486.432159	81.624138	-10.0986
489.957031	81.566139	-10.1765
493.507477	81.504189	-10.1901
497.083618	81.455269	-10.1077
500.685699	81.416115	-9.9944
504.313873	81.397995	-9.9294
507.968323	81.374092	-9.8394
511.649292	81.304108	-9.6674
515.356934	81.239159	-9.4408
519.091370	81.232239	-9.1514
522.852966	81.238976	-8.8510
526.641724	81.226227	-8.6113
530.458008	81.212044	-8.3649
534.301941	81.202454	-8.0634
538.173706	81.200981	-7.7202
542.073547	81.207497	-7.3020
546.001648	81.238838	-6.9012
549.958191	81.325806	-6.6008
553.943420	81.426689	-6.3985
557.957520	81.496635	-6.3063
562.000671	81.574692	-6.3635
566.073181	81.708984	-6.6294
570.175171	81.828674	-7.0573
574.306885	81.864830	-7.6774
578.468567	81.858078	-8.3169
582.660400	81.818726	-8.7817
586.882568	81.770157	-9.1638
591.135376	81.755127	-9.5145
595.419006	81.726151	-9.7653
599.733643	81.624428	-9.8579
604.079590	81.525291	-9.8104
608.456970	81.501961	-9.5900
612.866089	81.503960	-9.2921
617.307190	81.493881	-8.9971
621.780457	81.503906	-8.7189
626.286133	81.567192	-8.4937
630.824463	81.644745	-8.3324
635.395691	81.698318	-8.2614
640.000000	81.757774	-8.2708
644.637695	81.851418	-8.3660
649.309021	81.946693	-8.5283
654.014160	82.001305	-8.7012
658.753418	82.071693	-9.0027
663.527039	82.237740	-9.5577
668.335205	82.388588	-10.2922
673.178284	82.408836	-11.2183
678.056396	82.389091	-12.2007
682.969849	82.397369	-13.0867
687.918945	82.389076	-13.9401
692.903870	82.335983	-14.8091
697.924927	82.255310	-15.5925
702.982422	82.148392	-16.1964
708.076477	82.035393	-16.6456
713.207520	81.935768	-16.9032
718.375732	81.853249	-17.0615
723.581360	81.805824	-17.2003
728.824707	81.770111	-17.3225
734.106079	81.720474	-17.4438
739.425720	81.681107	-17.6053
744.783936	81.687355	-17.8845
750.180908	81.681091	-18.1879
755.617065	81.590500	-18.4607
761.092529	81.490334	-18.6625
766.607727	81.441185	-18.6844
772.162903	81.416046	-18.6770
777.758301	81.411369	-18.7558
783.394287	81.415977	-18.9193
789.071045	81.421555	-19.2209
794.789001	81.416054	-19.6095
800.548340	81.383034	-20.0763
806.349487	81.327240	-20.5464
812.192627	81.241516	-20.9343
818.078125	81.145348	-21.2620
824.006226	81.064911	-21.5399
829.977295	80.973358	-21.7175
835.991699	80.833809	-21.7361
842.049622	80.701424	-21.6306
848.151428	80.631264	-21.3799
854.297485	80.588120	-21.0940
860.488098	80.552544	-20.8705
866.723572	80.531044	-20.7273
873.004211	80.538483	-20.7507
879.330322	80.531090	-20.8326
885.702332	80.447830	-20.8934
892.120483	80.354301	-20.9309
898.585144	80.317192	-20.9196
905.096680	80.274208	-20.8514
911.655396	80.164948	-20.7325
918.261597	80.048401	-20.4961
924.915710	79.966125	-20.0303
931.618042	79.912140	-19.4751
938.368896	79.900497	-18.9259
945.168762	79.911926	-18.4098
952.017822	79.931908	-17.9937
958.916504	79.959885	-17.6532
965.865234	79.990883	-17.3864
972.864319	80.023872	-17.1916
979.914062	80.059875	-17.0809
987.014954	80.087914	-17.0112
994.167236	80.092003	-16.9537
1001.371399	80.088013	-16.8774
1008.627747	80.087997	-16.7498
1015.936646	80.087997	-16.5460
1023.298584	80.071404	-16.1780
1030.713867	80.087852	-15.8021
1038.182739	80.209717	-15.5354
1045.705933	80.353401	-15.4121
1053.283447	80.444885	-15.5411
1060.916016	80.525658	-15.8165
1068.603882	80.616302	-16.1395
1076.347412	80.707634	-16.5938
1084.147095	80.807541	-17.2529
1092.003296	80.884804	-18.0531
1099.916382	80.904762	-18.9857
1107.886841	80.885162	-19.9570
1115.915039	80.834770	-20.8965
1124.001343	80.746399	-21.7253
1132.146362	80.598900	-22.3184
1140.350342	80.442574	-22.7437
1148.613770	80.345085	-23.0594
1156.937134	80.234558	-23.1731
1165.320801	80.021942	-23.0016
1173.765137	79.823746	-22.5715
1182.270752	79.747993	-21.8070
1190.838013	79.734947	-20.9326
1199.467285	79.753136	-20.1221
1208.159180	79.822609	-19.4562
1216.913940	79.976357	-19.0874
1225.732178	80.145416	-18.9729
1234.614380	80.253265	-19.1281
1243.560913	80.353607	-19.5281
1252.572266	80.499138	-20.1675
1261.648926	80.618622	-21.0033
1270.791382	80.642891	-22.0394
1280.000000	80.616188	-23.1298
1289.275391	80.565216	-24.1458
1298.618042	80.475456	-25.0357
1308.028320	80.324753	-25.7020
1317.506836	80.161682	-26.1545
1327.054077	80.029869	-26.3203
1336.670410	79.923355	-26.3500
1346.356567	79.859383	-26.3654
1356.112793	79.811165	-26.3849
1365.939697	79.760269	-26.5071
1375.837891	79.698296	-26.6117
1385.807739	79.592621	-26.5839
1395.849854	79.497314	-26.5024
1405.964844	79.477287	-26.3993
1416.152954	79.469048	-26.3033
1426.415039	79.417213	-26.2815
1436.751465	79.360207	-26.2512
1447.162720	79.319328	-26.1290
1457.649414	79.292076	-25.9825
1468.212158	79.282188	-25.8317
1478.851440	79.291924	-25.7382
1489.567871	79.330818	-25.7528
1500.361816	79.380791	-25.9299
1511.234131	79.440483	-26.3893
1522.185059	79.468987	-26.9861
1533.215454	79.410133	-27.6617
1544.325806	79.307518	-28.2736
1555.516602	79.179764	-28.6354
1566.788574	79.047539	-28.8176
1578.142090	78.938232	-28.7986
1589.578003	78.850319	-28.6736
1601.096680	78.793373	-28.5051
1612.698975	78.761086	-28.3704
1624.385254	78.760864	-28.3776
1636.156250	78.761032	-28.4972
1648.012451	78.734360	-28.7983
1659.954590	78.674301	-29.0920
1671.983398	78.538559	-29.1753
1684.099243	78.407463	-29.1553
1696.302856	78.375008	-29.0469
1708.594971	78.360085	-28.9275
1720.976196	78.297867	-28.9114
1733.447144	78.230293	-28.9041
1746.008423	78.178070	-28.8051
1758.660645	78.142105	-28.7421
1771.404663	78.147537	-28.8376
1784.240967	78.142082	-29.0112
1797.170288	78.064926	-29.2495
1810.193359	77.965401	-29.4703
1823.310791	77.877846	-29.5680
1836.523193	77.788361	-29.5970
1849.831421	77.690918	-29.5696
1863.236084	77.595421	-29.5083
1876.737793	77.519409	-29.4603
1890.337524	77.434410	-29.3636
1904.035645	77.302567	-29.1787
1917.833008	77.168503	-28.8824
1931.730469	77.064240	-28.3820
1945.728638	76.991241	-27.8463
1959.828125	76.980316	-27.4327
1974.029907	76.975052	-27.0884
1988.334473	76.912544	-26.8258
2002.742798	76.841286	-26.6008
2017.255493	76.804901	-26.3849
2031.873291	76.757248	-26.1440
2046.597168	76.649185	-25.8529
2061.427734	76.531509	-25.4580
2076.365479	76.441353	-24.8588
2091.411865	76.372238	-24.1710
2106.566895	76.335114	-23.4739
2121.832031	76.314064	-22.7809
2137.207764	76.299370	-22.1628
2152.694824	76.283073	-21.5256
2168.294189	76.236107	-20.7672
2184.006592	76.211998	-19.9787
2199.832764	76.270081	-19.1652
2215.773682	76.365547	-18.4854
2231.830078	76.485451	-18.1449
2248.002686	76.591637	-18.0121
2264.292725	76.634529	-18.0814
2280.700684	76.635094	-18.1767
2297.227539	76.585884	-18.1138
2313.874268	76.523262	-17.9092
2330.641602	76.479958	-17.4749
2347.530273	76.460022	-16.9424
2364.541504	76.487007	-16.4045
2381.676025	76.534752	-15.8932
2398.934570	76.582764	-15.4773
2416.318359	76.636757	-15.1383
2433.827881	76.701233	-14.8960
2451.464355	76.759781	-14.7027
2469.228760	76.789398	-14.5275
2487.121826	76.813889	-14.3398
2505.144531	76.847260	-14.0686
2523.297852	76.896729	-13.8051
2541.582764	76.982193	-13.6059
2560.000000	77.079559	-13.5071
2578.550781	77.174019	-13.5864
2597.236084	77.256660	-13.7759
2616.056641	77.311867	-14.0601
2635.013672	77.344902	-14.3568
2654.108154	77.344955	-14.5582
2673.340820	77.344963	-14.7244
2692.713135	77.383789	-14.8492
2712.225586	77.433746	-15.0249
2731.879395	77.488846	-15.3843
2751.675781	77.521935	-15.8000
2771.615479	77.489281	-16.2090
2791.699707	77.434265	-16.5457
2811.929688	77.384209	-16.6852
2832.305908	77.345146	-16.7418
2852.830078	77.339432	-16.7759
2873.502930	77.344971	-16.8287
2894.325439	77.350494	-16.9882
2915.298828	77.345070	-17.1741
2936.424316	77.306778	-17.3475
2957.702881	77.257233	-17.4707
2979.135742	77.207199	-17.4612
3000.723633	77.168137	-17.4132
3022.468262	77.167923	-17.4023
3044.370117	77.168037	-17.4039
3066.430908	77.129768	-17.4434
3088.651611	77.080231	-17.4452
3111.033203	77.030212	-17.3142
3133.577148	76.991142	-17.1320
3156.284180	76.985428	-16.9371
3179.156006	76.990959	-16.7657
3202.193359	76.995865	-16.6955
3225.397949	76.991058	-16.6393
3248.770508	76.952820	-16.5328
3272.312500	76.913155	-16.3828
3296.024902	76.903137	-16.1621
3319.909180	76.903000	-15.9102
3343.966797	76.896881	-15.6447
3368.198486	76.902924	-15.4050
3392.605713	76.946777	-15.2445
3417.189941	76.990837	-15.1394
3441.952393	76.996506	-15.1040
3466.894287	76.991028	-15.0762
3492.016846	76.990997	-14.9916
3517.321289	76.990997	-14.8696
3542.809326	76.986565	-14.6948
3568.481934	76.990944	-14.5088
3594.340576	77.024818	-14.3535
3620.386719	77.061836	-14.2136
3646.621582	77.073273	-14.0900
3673.046387	77.085907	-13.9755
3699.662842	77.124863	-13.8599
3726.472168	77.167809	-13.7535
3753.475586	77.193451	-13.6620
3780.675049	77.222839	-13.5903
3808.071289	77.276543	-13.5375
3835.666016	77.335724	-13.5259
3863.460938	77.386330	-13.5841
3891.457275	77.433769	-13.6943
3919.656250	77.483902	-13.8690
3948.059814	77.521873	-14.0463
3976.668945	77.522018	-14.1646
4005.485596	77.521965	-14.2328
4034.510986	77.554657	-14.2014
4063.746582	77.609673	-14.1840
4093.194336	77.692993	-14.2684
4122.855469	77.787514	-14.4845
4152.730957	77.887177	-14.9306
4182.823730	77.964714	-15.4882
4213.133789	77.976074	-16.0854
4243.664062	77.965065	-16.6763
4274.415527	77.964996	-17.1620
4305.389648	77.964996	-17.6287
4336.588379	77.974106	-18.1704
4368.013184	77.965111	-18.6688
4399.665527	77.883766	-18.9802
4431.547363	77.819191	-19.2705
4463.660156	77.889046	-19.6663
4496.005371	77.956795	-20.1473
4528.585449	77.892624	-20.8023
4561.401367	77.788528	-21.4283
4594.455078	77.700424	-21.8168
4627.748535	77.611427	-22.0671
4661.283203	77.517509	-22.1945
4695.060547	77.434357	-22.2488
4729.083008	77.386826	-22.2866
4763.352051	77.344215	-22.3030
4797.869141	77.277039	-22.3289
4832.636719	77.205360	-22.3132
4867.655762	77.139687	-22.2069
4902.928711	77.080276	-22.0340
4938.457520	77.027916	-21.7864
4974.243652	76.991119	-21.5133
5010.289062	76.985428	-21.2575
5046.595703	76.990959	-21.0310
5083.165527	76.990997	-20.8713
5120.000000	76.991005	-20.7446
5157.101562	76.990997	-20.6307
5194.472168	76.990997	-20.5236
5232.113281	76.989815	-20.4108
5270.027344	76.990982	-20.2916
5308.216309	76.996078	-20.1510
5346.681641	77.009903	-20.0197
5385.426270	77.040520	-19.9123
5424.451172	77.079781	-19.8630
5463.758789	77.128143	-19.9316
5503.351562	77.167847	-20.0563
5543.230957	77.173508	-20.2095
5583.399414	77.168037	-20.3474
5623.859375	77.164757	-20.3995
5664.611816	77.167953	-20.4180
5705.660156	77.186798	-20.4102
5747.005859	77.219795	-20.4417
5788.650879	77.278694	-20.5967
5830.597656	77.332771	-20.8267
5872.848633	77.346046	-21.1287
5915.405762	77.345024	-21.4464
5958.271484	77.345749	-21.7113
6001.447266	77.345009	-21.9568
6044.936523	77.345001	-22.1928
6088.740234	77.345001	-22.4238
6132.861816	77.345001	-22.6567
6177.303223	77.344994	-22.8938
6222.066406	77.345001	-23.1381
6267.154297	77.344994	-23.3947
6312.568359	77.345001	-23.6633
6358.312012	77.344994	-23.9624
6404.386719	77.350494	-24.3251
6450.795898	77.345078	-24.7070
6497.541016	77.306793	-25.0830
6544.625000	77.257263	-25.4274
6592.049805	77.212730	-25.6951
6639.818359	77.168228	-25.9189
6687.933594	77.124229	-26.1158
6736.396973	77.080223	-26.2902
6785.211426	77.036598	-26.4486
6834.379883	76.991234	-26.6012
6883.904785	76.950439	-26.8019
6933.788574	76.889404	-26.9267
6984.033691	76.762817	-26.8666
7034.642578	76.637573	-26.6257
7085.618652	76.571983	-26.1166
7136.963867	76.549011	-25.5062
7188.681152	76.570648	-24.8948
7240.773438	76.636543	-24.4000
7293.243164	76.769279	-24.2059
7346.092773	76.902390	-24.2145
7399.325684	76.957863	-24.4242
7452.944336	76.990845	-24.7253
7506.951172	77.035263	-24.9786
7561.350098	77.079765	-25.2683
7616.142578	77.129318	-25.6497
7671.332031	77.167847	-26.0757
7726.921875	77.173508	-26.5243
7782.914551	77.168037	-26.9738
7839.312500	77.167999	-27.3777
7896.119629	77.167992	-27.7877
7953.337891	77.174423	-28.2604
8010.971191	77.168091	-28.7366
8069.021973	77.121414	-29.1808
8127.493164	77.065292	-29.5760
8186.388672	77.025757	-29.8768
8245.710938	76.991173	-30.1327
8305.461914	76.956047	-30.3683
8365.647461	76.927124	-30.6166
8426.267578	76.919556	-30.9344
8487.328125	76.903145	-31.2742
8548.831055	76.844986	-31.6384
8610.779297	76.767433	-31.9308
8673.176758	76.672501	-32.0247
8736.026367	76.589371	-32.0123
8799.331055	76.557976	-31.9191
8863.094727	76.549011	-31.8224
8927.320312	76.546501	-31.8174
8992.010742	76.548988	-31.8774
9057.170898	76.552559	-32.0193
9122.802734	76.549057	-32.2069
9188.910156	76.527718	-32.4321
9255.497070	76.492226	-32.6271
9322.566406	76.432693	-32.7024
9390.121094	76.379227	-32.7131
9458.166016	76.368446	-32.6689
9526.704102	76.371964	-32.6202
9595.738281	76.371567	-32.6383
9665.273438	76.372002	-32.6708
9735.311523	76.366508	-32.6713
9805.857422	76.371918	-32.6898
9876.915039	76.410187	-32.7466
9948.487305	76.459717	-32.8869
10020.578125	76.509750	-33.1873
10093.191406	76.548843	-33.5747
10166.331055	76.554573	-34.0035
10240.000000	76.549034	-34.4655
10314.203125	76.554558	-34.9419
10388.944336	76.549072	-35.4187
10464.226562	76.510254	-35.8860
10540.054688	76.460320	-36.3116
10616.432617	76.414398	-36.6416
10693.363281	76.372231	-36.9293
10770.852539	76.344528	-37.2270
10848.902344	76.313202	-37.4877
10927.517578	76.250648	-37.6738
11006.703125	76.195236	-37.8084
11086.461914	76.182121	-37.8569
11166.798828	76.194862	-37.9561
11247.718750	76.244232	-38.2726
11329.223633	76.282890	-38.6867
11411.320312	76.244942	-39.1389
11494.011719	76.195236	-39.6085
11577.301758	76.193367	-40.0376
11661.195312	76.192047	-40.4794
11745.697266	76.154556	-40.9843
11830.811523	76.106277	-41.5062
11916.542969	76.067917	-42.0250
12002.894531	76.018318	-42.5115
12089.873047	75.930077	-42.9204
12177.480469	75.841461	-43.2781
12265.723633	75.792366	-43.5760
12354.606445	75.752220	-43.8743
12444.132812	75.703102	-44.2515
12534.308594	75.645340	-44.6448
12625.136719	75.570801	-45.0270
12716.624023	75.487457	-45.3683
12808.773438	75.394691	-45.6041
12901.591797	75.310425	-45.8128
12995.082031	75.265717	-46.0545
13089.250000	75.221260	-46.3226
13184.099609	75.142700	-46.6692
13279.636719	75.044563	-46.9766
13375.867188	74.918205	-47.1153
13472.793945	74.799622	-47.1698
13570.422852	74.734573	-47.1584
13668.759766	74.686272	-47.1549
13767.809570	74.633141	-47.2625
13867.577148	74.573387	-47.4120
13968.067383	74.497490	-47.5891
14069.285156	74.407555	-47.7294
14171.237305	74.292526	-47.7457
14273.927734	74.182541	-47.6914
14377.362305	74.113319	-47.5696
14481.546875	74.058273	-47.4475
14586.486328	74.004990	-47.4154
14692.185547	73.945381	-47.4100
14798.651367	73.865013	-47.4218
14905.888672	73.770584	-47.3776
15013.902344	73.654404	-47.1801
15122.700195	73.545547	-46.8909
15232.285156	73.483513	-46.5441
15342.664062	73.430336	-46.1287
15453.843750	73.345284	-45.6462
15565.829102	73.274300	-45.0922
15678.625000	73.253197	-44.4093
15792.239258	73.273773	-43.7572
15906.675781	73.350937	-43.2681
16021.942383	73.450439	-42.9730
16138.043945	73.550041	-42.9983
16254.986328	73.627655	-43.1896
16372.777344	73.639076	-43.4491
16491.421875	73.628082	-43.7275
16610.923828	73.627998	-43.9221
16731.294922	73.627998	-44.0970
16852.535156	73.627998	-44.2825
16974.656250	73.627998	-44.4797
17097.662109	73.627998	-44.6936
17221.558594	73.627998	-44.9414
17346.353516	73.633423	-45.2577
17472.052734	73.628082	-45.5959
17598.662109	73.590401	-45.9337
17726.189453	73.541306	-46.2314
17854.640625	73.490829	-46.4103
17984.021484	73.451172	-46.5651
18114.341797	73.450844	-46.7723
18245.605469	73.451042	-47.0125
18377.820312	73.412827	-47.3128
18510.994141	73.363304	-47.6074
18645.132812	73.315262	-47.8132
18780.242188	73.274193	-48.0059
18916.332031	73.256012	-48.2222
19053.408203	73.242081	-48.4982
19191.476562	73.228760	-48.9391
19330.546875	73.186348	-49.3748
19470.623047	73.055733	-49.6544
19611.714844	72.920700	-49.8184
19753.830078	72.865547	-49.8159
19896.974609	72.833176	-49.7742
