"Directivity Index"			
"Sound Power DI"		"Early Reflections DI"	
"Frequency [Hz]"	"[dB] Directivity Index "	"Frequency [Hz]"	"[dB] Directivity Index "
20.5078	3.89852	20.5078	1.76197
21.9727	-8.00744	21.9727	-2.72297
23.4375	-4.08113	23.4375	-0.989819
24.9023	-3.13879	24.9023	-0.789298
26.3672	-3.04494	26.3672	-0.855069
27.832	-2.03767	27.832	-0.52566
29.2969	-1.68342	29.2969	-0.43884
30.7617	-1.43983	30.7617	-0.336682
32.2266	-1.33991	32.2266	-0.327265
33.6914	-1.17645	33.6914	-0.284113
35.1562	-1.04021	35.1562	-0.24539
36.6211	-0.911687	36.6211	-0.206175
38.0859	-0.831519	38.0859	-0.182303
39.5508	-1.03607	39.5508	-0.216246
41.0156	-0.981956	41.0156	-0.198374
42.4805	-0.874044	42.4805	-0.164654
43.9453	-0.826924	43.9453	-0.153745
45.4102	-0.799473	45.4102	-0.147735
46.875	-0.783058	46.875	-0.143503
48.3398	-0.705093	48.3398	-0.118711
51.2695	-0.578791	51.2695	-0.080895
52.7344	-0.522719	52.7344	-0.0631748
54.1992	-0.485918	54.1992	-0.0511382
55.6641	-0.483407	55.6641	-0.0512606
58.5938	-0.448542	58.5938	-0.0387411
60.0586	-0.437092	60.0586	-0.0373748
62.9883	-0.381538	62.9883	-0.0186641
64.4531	-0.427396	64.4531	-0.0294082
67.3828	-0.341866	67.3828	0.0028844
68.8477	-0.317534	68.8477	0.0118481
71.7773	-0.201967	71.7773	0.0524427
74.707	-0.131823	74.707	0.0756833
77.6367	-0.156042	77.6367	0.0682779
79.1016	-0.17496	79.1016	0.0619706
82.0312	-0.146994	82.0312	0.0731965
84.9609	-0.0578389	84.9609	0.109345
87.8906	-0.0288637	87.8906	0.119605
90.8203	-0.177837	90.8203	0.0669433
95.2148	0.219123	95.2148	0.230466
98.1445	0.37487	98.1445	0.282548
101.074	0.223448	101.074	0.226393
105.469	0.41593	105.469	0.314779
108.398	0.540237	108.398	0.351105
112.793	0.78891	112.793	0.430963
117.188	0.853925	117.188	0.436346
120.117	0.869858	120.117	0.427028
124.512	0.810869	124.512	0.392245
128.906	0.97335	128.906	0.452641
133.301	0.868161	133.301	0.417888
139.16	0.76781	139.16	0.39012
143.555	0.789535	143.555	0.416043
147.949	0.956715	147.949	0.491982
153.809	1.40494	153.809	0.669126
159.668	1.86506	159.668	0.78437
165.527	2.06037	165.527	0.828465
171.387	1.80923	171.387	0.707568
177.246	1.76581	177.246	0.715368
183.105	1.9825	183.105	0.800367
188.965	2.62251	188.965	1.03363
196.289	3.09074	196.289	1.11501
203.613	2.94505	203.613	1.0189
210.938	2.93474	210.938	1.05472
218.262	3.52429	218.262	1.179
225.586	3.46779	225.586	1.15763
232.91	3.53729	232.91	1.24438
241.699	3.66861	241.699	1.21292
250.488	3.31587	250.488	1.10569
259.277	3.95418	259.277	1.42455
268.066	3.86607	268.066	1.21253
276.855	3.64461	276.855	1.19622
287.109	3.72605	287.109	1.23161
297.363	3.73637	297.363	1.45198
307.617	4.04068	307.617	1.40552
319.336	3.65592	319.336	1.42921
329.59	3.81439	329.59	1.42145
341.309	3.38467	341.309	1.40502
353.027	4.7025	353.027	1.96274
366.211	4.38904	366.211	1.67153
379.395	4.26235	379.395	1.5671
392.578	3.46163	392.578	1.4056
405.762	4.14222	405.762	1.65947
420.41	4.29684	420.41	1.7768
435.059	3.79754	435.059	1.54194
451.172	4.23494	451.172	1.66934
465.82	4.42181	465.82	1.62183
483.398	4.06757	483.398	1.69565
499.512	4.57007	499.512	1.78793
517.09	3.9083	517.09	1.59295
536.133	4.73757	536.133	2.05256
555.176	5.02274	555.176	1.8734
574.219	4.25852	574.219	1.53224
594.727	4.61737	594.727	1.94135
615.234	4.43546	615.234	1.73599
637.207	4.91562	637.207	2.05106
659.18	4.3703	659.18	1.62149
682.617	4.77546	682.617	1.96422
707.52	4.51471	707.52	1.80368
732.422	5.29642	732.422	2.32025
757.324	4.93624	757.324	2.05969
785.156	5.45872	785.156	2.2565
811.523	5.04393	811.523	2.04594
840.82	4.64966	840.82	2.06428
870.117	5.37511	870.117	2.46651
900.879	5.26141	900.879	2.27861
933.105	4.97439	933.105	2.22559
965.332	4.7697	965.332	2.27198
1,000.49	4.60048	1,000.49	2.05125
1,035.64	4.6817	1,035.64	2.19896
1,072.27	4.54005	1,072.27	2.3243
1,108.89	4.62316	1,108.89	2.16541
1,148.44	5.0384	1,148.44	2.20893
1,189.45	4.85631	1,189.45	2.08943
1,230.47	5.02032	1,230.47	2.25516
1,274.41	4.22221	1,274.41	1.62442
1,319.82	4.80887	1,319.82	1.98982
1,366.7	4.00391	1,366.7	1.47936
1,413.57	4.7272	1,413.57	1.88647
1,463.38	4.27489	1,463.38	1.47314
1,516.11	5.08245	1,516.11	1.93708
1,568.85	4.74452	1,568.85	1.70251
1,624.51	5.51746	1,624.51	2.08635
1,681.64	4.74456	1,681.64	1.5969
1,741.7	5.5195	1,741.7	2.14013
1,803.22	5.14183	1,803.22	1.90146
1,866.21	5.93281	1,866.21	2.49176
1,932.13	5.96973	1,932.13	2.47986
1,999.51	5.84511	1,999.51	2.52269
2,069.82	6.17447	2,069.82	2.95512
2,143.07	5.94342	2,143.07	2.68608
2,219.24	6.14077	2,219.24	2.61643
2,296.88	6.37434	2,296.88	2.90265
2,378.91	5.93247	2,378.91	2.64541
2,462.4	5.53756	2,462.4	2.43812
2,548.83	6.21548	2,548.83	2.7586
2,639.65	5.94558	2,639.65	2.49673
2,731.93	5.91228	2,731.93	2.50889
2,828.61	5.11511	2,828.61	1.97931
2,928.22	5.49309	2,928.22	2.18601
3,030.76	5.67639	3,030.76	2.00755
3,137.7	5.18761	3,137.7	1.83646
3,249.02	5.55766	3,249.02	2.08483
3,363.28	5.42851	3,363.28	1.85748
3,481.93	5.47417	3,481.93	1.91134
3,604.98	5.77409	3,604.98	2.10991
3,732.42	6.24471	3,732.42	2.21716
3,864.26	5.98093	3,864.26	2.03277
4,000.49	5.79733	4,000.49	1.91044
4,141.11	6.33284	4,141.11	2.2256
4,287.6	6.10726	4,287.6	2.09568
4,438.48	6.6489	4,438.48	2.39818
4,595.21	6.67848	4,595.21	2.42893
4,756.35	6.78264	4,756.35	2.65319
4,924.8	6.77638	4,924.8	2.69712
5,097.66	6.78011	5,097.66	2.69552
5,277.83	6.92058	5,277.83	2.83386
5,463.87	6.75172	5,463.87	2.64623
5,657.23	7.16805	5,657.23	2.89197
5,856.45	7.13643	5,856.45	2.85533
6,062.99	7.07304	6,062.99	2.81558
6,276.86	6.8747	6,276.86	2.78244
6,498.05	6.66964	6,498.05	2.59932
6,726.56	6.70397	6,726.56	2.62668
6,963.87	6.28857	6,963.87	2.36154
7,209.96	6.44557	7,209.96	2.43024
7,464.84	6.30748	7,464.84	2.39055
7,727.05	6.64901	7,727.05	2.66281
7,999.51	6.94427	7,999.51	2.68429
8,282.23	7.016	8,282.23	2.67247
8,573.73	7.124	8,573.73	2.78062
8,876.95	7.11648	8,876.95	2.85468
9,188.96	7.30509	9,188.96	2.98221
9,514.16	7.35629	9,514.16	3.01951
9,849.61	7.44195	9,849.61	3.01868
10,196.8	7.58009	10,196.8	3.07603
10,555.7	7.49725	10,555.7	3.02335
10,927.7	7.4601	10,927.7	3.09836
11,313	7.66155	11,313	3.27917
11,712.9	7.77695	11,712.9	3.32455
12,126	7.97328	12,126	3.41581
12,553.7	8.07647	12,553.7	3.4518
12,996.1	8.17791	12,996.1	3.43014
13,454.6	8.21654	13,454.6	3.4294
13,929.2	8.30368	13,929.2	3.4838
14,419.9	8.37351	14,419.9	3.56123
14,928.2	8.58419	14,928.2	3.70059
15,455.6	8.80862	15,455.6	3.85907
16,000.5	8.99278	16,000.5	4.00518
16,564.5	9.21104	16,564.5	4.11465
17,148.9	9.59389	17,148.9	4.39177
17,752.4	10.0715	17,752.4	4.72252
18,379.4	10.6372	18,379.4	5.03464
19,026.9	11.2109	19,026.9	5.26017
19,697.8	11.6898	19,697.8	5.42649
19,999.5	11.8049	19,999.5	5.43996
