* Measurement data measured by REW V5.20 Beta 53
* Source: C:\Users\Napie\Music\REW\Top Speakers\New Folder\3-ERDI.txt
* Format: Comma/Tab/Space delimited data
* Dated: May 26, 2020 2:48:00 PM
* REW Settings:
*  C-weighting compensation: Off
*  Target level: 75.0 dB
* Note: ; Measurement imported from C:\Users\Napie\Music\REW\Top Speakers\New Folder\3-ERDI.txt Format: Comma/Tab/Space delimited data 623 values loaded, 5 Hz to 39,792 Hz log spaced 
* Measurement: 3-ERDI
* Smoothing: None
* Frequency Step: 1/96 octave
* Start Frequency: 20.000 Hz
*
* Freq(Hz)	SPL(dB)	Phase(degrees)
20.000000	50.638065	-49.7221
20.144928	50.540066	-48.3746
20.290907	50.503990	-46.9353
20.437943	50.654362	-45.5589
20.586044	50.864849	-44.3757
20.735220	51.034538	-43.6163
20.885475	51.210785	-43.1344
21.036821	51.407867	-42.8092
21.189262	51.624714	-42.7938
21.342808	51.884243	-43.1999
21.497467	52.128727	-44.0327
21.653246	52.320621	-45.4390
21.810154	52.421940	-47.1057
21.968201	52.359512	-48.8420
22.127390	52.201210	-50.4254
22.287735	51.974281	-51.5145
22.449242	51.728191	-52.2745
22.611917	51.535057	-52.7134
22.775772	51.354218	-52.9638
22.940815	51.173805	-53.1991
23.107054	50.979271	-53.3040
23.274498	50.739719	-53.2300
23.443153	50.492329	-52.9475
23.613033	50.268364	-52.4114
23.784142	50.055180	-51.6198
23.956491	49.827385	-50.4903
24.130091	49.654152	-49.2195
24.304947	49.628929	-47.9407
24.481071	49.653954	-46.7624
24.658470	49.653999	-45.8855
24.837156	49.653999	-45.1669
25.017136	49.653999	-44.5256
25.198421	49.653999	-43.9745
25.381020	49.653999	-43.4879
25.564941	49.654003	-43.1013
25.750195	49.666119	-42.8763
25.936790	49.654041	-42.7092
26.124741	49.569763	-42.5395
26.314051	49.460167	-42.2984
26.504732	49.359573	-41.8785
26.696796	49.258121	-41.3357
26.890253	49.156364	-40.6942
27.085112	49.057114	-39.9429
27.281382	48.964363	-39.0995
27.479073	48.875114	-38.1025
27.678198	48.766445	-36.8391
27.878765	48.702042	-35.4810
28.080786	48.766743	-34.1308
28.284271	48.874840	-32.8846
28.489231	48.961380	-31.9202
28.695675	49.047878	-31.0951
28.903616	49.128944	-30.3047
29.113064	49.220860	-29.6109
29.324028	49.348576	-29.0384
29.536524	49.480846	-28.5954
29.750557	49.593063	-28.3343
29.966141	49.689903	-28.1482
30.183289	49.752918	-27.9061
30.402010	49.826889	-27.7322
30.622314	49.977558	-27.7129
30.844217	50.123840	-27.8308
31.067726	50.190807	-28.1525
31.292856	50.224964	-28.5115
31.519617	50.237980	-28.7049
31.748020	50.259960	-28.9067
31.978081	50.350506	-29.2317
32.209808	50.432915	-29.6574
32.443211	50.437210	-30.2606
32.678310	50.402065	-30.8573
32.915108	50.329163	-31.2304
33.153625	50.260071	-31.5536
33.393871	50.270672	-31.9675
33.635857	50.260059	-32.3554
33.879597	50.111240	-32.6614
34.125103	49.947205	-32.8429
34.372387	49.876392	-32.7866
34.621464	49.827072	-32.6492
34.872345	49.752163	-32.5484
35.125042	49.685074	-32.4890
35.379574	49.664650	-32.5413
35.635948	49.628067	-32.6259
35.894180	49.505814	-32.7260
36.154285	49.356228	-32.7241
36.416275	49.214588	-32.4674
36.680161	49.081200	-32.0448
36.945961	48.965973	-31.4681
37.213688	48.875118	-30.8170
37.483353	48.827991	-30.1798
37.754974	48.795052	-29.5430
38.028561	48.743568	-28.9251
38.304131	48.702045	-28.3178
38.581699	48.691246	-27.6863
38.861279	48.701965	-27.1278
39.142883	48.740936	-26.7311
39.426529	48.780952	-26.4872
39.712231	48.800743	-26.4570
40.000000	48.789047	-26.5189
40.289856	48.724754	-26.6255
40.581814	48.616188	-26.6152
40.875885	48.443260	-26.2896
41.172089	48.270245	-25.7101
41.470440	48.162014	-24.8140
41.770950	48.097073	-23.7758
42.073643	48.075375	-22.7130
42.378525	48.096939	-21.7353
42.685616	48.183369	-21.0236
42.994934	48.269901	-20.4807
43.306492	48.280819	-20.1059
43.620308	48.270023	-19.7895
43.936401	48.270000	-19.3917
44.254780	48.270004	-19.0006
44.575470	48.280807	-18.7036
44.898483	48.270046	-18.3636
45.223835	48.182892	-17.8665
45.551544	48.097099	-17.2300
45.881630	48.082115	-16.3613
46.214108	48.108929	-15.4783
46.548996	48.190117	-14.8193
46.886307	48.269897	-14.2329
47.226067	48.263889	-13.6189
47.568283	48.269951	-13.0589
47.912983	48.399265	-12.6089
48.260181	48.528816	-12.2455
48.609894	48.534389	-11.9818
48.962143	48.528992	-11.7643
49.316940	48.615353	-11.5242
49.674313	48.701881	-11.3203
50.034271	48.712818	-11.2309
50.396843	48.702023	-11.1292
50.762039	48.702000	-10.9015
51.129883	48.702003	-10.5846
51.500389	48.691193	-10.1423
51.873581	48.701950	-9.6808
52.249481	48.784470	-9.2992
52.628101	48.874863	-8.9835
53.009464	48.909832	-8.7773
53.393593	48.936947	-8.6063
53.780506	48.985474	-8.3681
54.170223	49.047890	-8.1892
54.562763	49.141293	-8.1917
54.958145	49.220901	-8.2888
55.356396	49.231819	-8.4500
55.757530	49.221024	-8.6267
56.161572	49.231808	-8.7821
56.568542	49.221046	-8.8510
56.978462	49.134663	-8.7511
57.391350	49.048138	-8.4966
57.807232	49.029999	-8.0154
58.226128	49.047943	-7.4839
58.648056	49.096336	-7.0495
59.073048	49.162884	-6.7294
59.501114	49.244305	-6.6293
59.932281	49.307915	-6.6309
60.366577	49.306778	-6.6838
60.804020	49.280056	-6.6901
61.244629	49.248802	-6.5203
61.688435	49.221039	-6.2186
62.135452	49.201073	-5.7178
62.585712	49.220921	-5.2238
63.039234	49.350769	-4.9550
63.496040	49.480824	-4.8082
63.956161	49.486889	-4.7693
64.419617	49.480988	-4.7859
64.886421	49.563404	-4.7780
65.356621	49.646877	-4.8139
65.830215	49.660877	-4.9745
66.307251	49.654026	-5.1427
66.787743	49.654438	-5.2080
67.271713	49.653999	-5.2300
67.759193	49.653999	-5.2315
68.250206	49.653999	-5.2130
68.744774	49.653999	-5.1823
69.242928	49.654003	-5.1401
69.744690	49.653999	-5.0897
70.250084	49.653999	-5.0311
70.759148	49.653999	-4.9651
71.271896	49.653999	-4.8921
71.788361	49.653999	-4.8132
72.308571	49.653999	-4.7282
72.832550	49.653999	-4.6375
73.360321	49.653999	-4.5412
73.891922	49.653999	-4.4399
74.427376	49.653999	-4.3322
74.966705	49.653999	-4.2175
75.509949	49.653999	-4.0942
76.057121	49.653999	-3.9635
76.608261	49.653999	-3.8173
77.163399	49.652061	-3.6444
77.722557	49.653984	-3.4564
78.285767	49.665909	-3.2536
78.853058	49.684956	-3.0594
79.424461	49.711761	-2.8969
80.000000	49.741943	-2.7662
80.579712	49.771633	-2.6798
81.163628	49.799950	-2.6241
81.751770	49.822392	-2.5791
82.344177	49.845951	-2.5769
82.940880	49.887051	-2.6705
83.541901	49.912975	-2.7778
84.147285	49.878773	-2.8388
84.757050	49.837070	-2.8401
85.371231	49.831997	-2.7036
85.989868	49.844955	-2.5632
86.612984	49.884045	-2.5621
87.240616	49.912964	-2.5969
87.872803	49.880772	-2.6218
88.509560	49.839077	-2.6061
89.150940	49.830261	-2.4767
89.796967	49.831989	-2.3153
90.447670	49.835926	-2.1873
91.103088	49.841984	-2.0702
91.763260	49.846992	-1.9646
92.428215	49.851994	-1.8662
93.097992	49.856991	-1.7706
93.772614	49.861988	-1.6782
94.452133	49.866989	-1.5878
95.136566	49.871994	-1.4992
95.825966	49.876991	-1.4117
96.520363	49.881989	-1.3252
97.219788	49.886990	-1.2394
97.924286	49.891991	-1.1542
98.633881	49.896988	-1.0693
99.348625	49.901993	-0.9852
100.068542	49.906990	-0.9023
100.793686	49.911987	-0.8202
101.524078	49.916985	-0.7386
102.259766	49.921986	-0.6572
103.000778	49.926987	-0.5756
103.747162	49.931988	-0.4942
104.498962	49.936989	-0.4134
105.256203	49.941994	-0.3331
106.018929	49.946991	-0.2535
106.787186	49.951988	-0.1742
107.561012	49.956993	-0.0950
108.340446	49.961994	-0.0161
109.125526	49.966995	0.0625
109.916290	49.971992	0.1409
110.712791	49.976990	0.2190
111.515060	49.981987	0.2968
112.323143	49.986992	0.3745
113.137085	49.991989	0.4518
113.956924	49.996986	0.5289
114.782700	50.001984	0.6058
115.614464	50.006989	0.6825
116.452255	50.011990	0.7589
117.296112	50.016991	0.8349
118.146095	50.021988	0.9108
119.002228	50.026989	0.9869
119.864563	50.031990	1.0628
120.733154	50.036987	1.1385
121.608040	50.041985	1.2138
122.489258	50.047050	1.2884
123.376869	50.051987	1.3628
124.270905	50.056488	1.4378
125.171425	50.060993	1.5129
126.078468	50.065926	1.5880
126.992081	50.070992	1.6628
127.912323	50.075989	1.7370
128.839233	50.080994	1.8109
129.772842	50.085991	1.8849
130.713242	50.090988	1.9589
131.660431	50.095989	2.0328
132.614502	50.100986	2.1068
133.575485	50.105988	2.1808
134.543427	50.110992	2.2549
135.518387	50.115990	2.3294
136.500412	50.120991	2.4039
137.489548	50.125988	2.4774
138.485855	50.130989	2.5508
139.489380	50.135986	2.6248
140.500168	50.140987	2.6988
141.518295	50.145988	2.7728
142.543793	50.150986	2.8468
143.576721	50.155991	2.9212
144.617142	50.160992	2.9958
145.665100	50.165985	3.0708
146.720642	50.170986	3.1458
147.783844	50.175987	3.2207
148.854752	50.180984	3.2958
149.933411	50.185989	3.3711
151.019897	50.190990	3.4468
152.114243	50.195992	3.5230
153.216522	50.200985	3.5998
154.326797	50.205986	3.6771
155.445114	50.210987	3.7548
156.571533	50.215988	3.8331
157.706116	50.220989	3.9118
158.848923	50.225990	3.9909
160.000000	50.230988	4.0708
161.159424	50.235989	4.1520
162.327255	50.240990	4.2338
163.503540	50.246048	4.3156
164.688354	50.250988	4.3978
165.881760	50.256107	4.4785
167.083801	50.259987	4.5638
168.294571	50.260563	4.6566
169.514099	50.259998	4.7647
170.742462	50.259998	4.8895
171.979736	50.259998	5.0535
173.225967	50.249195	5.3215
174.481232	50.259933	5.5695
175.745605	50.346283	5.6816
177.019119	50.432827	5.6961
178.301880	50.443821	5.5750
179.593933	50.433033	5.4323
180.895340	50.432999	5.3915
182.206177	50.432999	5.3870
183.526520	50.432999	5.3930
184.856430	50.432999	5.4119
186.195984	50.432999	5.4381
187.545227	50.432999	5.4709
188.904266	50.432999	5.5087
190.273132	50.432999	5.5489
191.651932	50.432999	5.5910
193.040726	50.432999	5.6279
194.439575	50.434559	5.6523
195.848572	50.433010	5.6640
197.267761	50.427715	5.6361
198.697250	50.408070	5.6419
200.137085	50.351143	5.7507
201.587372	50.293118	5.9484
203.048157	50.269352	6.2668
204.519531	50.260014	6.6369
206.001556	50.257935	6.9890
207.494324	50.259991	7.3571
208.997925	50.259998	7.7299
210.512405	50.259998	8.1738
212.037857	50.241764	8.8049
213.574371	50.259880	9.4644
215.122025	50.386734	10.0732
216.680893	50.551533	10.5072
218.251053	50.709312	10.5726
219.832581	50.853615	10.3978
221.425583	50.964615	10.0047
223.030121	51.037868	9.5223
224.646286	51.049507	9.0829
226.274170	51.038036	8.6989
227.913849	51.037998	8.4477
229.565399	51.037998	8.2644
231.228928	51.037998	8.1088
232.904510	51.038002	7.9833
234.592224	51.037998	7.8776
236.292191	51.037998	7.7902
238.004456	51.037998	7.7169
239.729126	51.037998	7.6561
241.466309	51.037998	7.6053
243.216080	51.037998	7.5641
244.978516	51.037998	7.5315
246.753738	51.037998	7.5071
248.541809	51.037998	7.4899
250.342850	51.037998	7.4800
252.156937	51.037998	7.4770
253.984161	51.037998	7.4810
255.824646	51.037998	7.4918
257.678467	51.037998	7.5099
259.545685	51.037998	7.5352
261.426483	51.037998	7.5699
263.320862	51.037998	7.6146
265.229004	51.037998	7.6738
267.150970	51.037998	7.7438
269.086853	51.037998	7.8506
271.036774	51.027195	8.0608
273.000824	51.037914	8.2506
274.979095	51.124222	8.3053
276.971710	51.210789	8.2623
278.978760	51.221821	8.0827
281.000336	51.211037	7.8815
283.036591	51.210999	7.7835
285.087585	51.210995	7.7222
287.153442	51.210999	7.6708
289.234283	51.211002	7.6331
291.330200	51.210999	7.6044
293.441284	51.210999	7.5840
295.567688	51.210999	7.5697
297.709503	51.210999	7.5610
299.866821	51.210999	7.5567
302.039795	51.210999	7.5570
304.228485	51.210999	7.5620
306.433044	51.211002	7.5710
308.653595	51.210999	7.5831
310.890228	51.210999	7.5990
313.143066	51.210999	7.6189
315.412231	51.210999	7.6429
317.697845	51.210999	7.6708
320.000000	51.211002	7.7029
322.318848	51.210999	7.7394
324.654510	51.211002	7.7809
327.007080	51.210999	7.8272
329.376709	51.210999	7.8798
331.763519	51.210999	7.9389
334.167603	51.210999	8.0078
336.589142	51.210999	8.0851
339.028198	51.210999	8.1857
341.484924	51.205566	8.3426
343.959473	51.210957	8.5006
346.451935	51.252060	8.6150
348.962463	51.297882	8.6859
351.491211	51.318829	8.6886
354.038239	51.334949	8.6531
356.603760	51.361736	8.6009
359.187866	51.383942	8.5342
361.790680	51.387066	8.4560
364.412354	51.384010	8.3862
367.053040	51.383999	8.3518
369.712860	51.383999	8.3350
372.391968	51.383999	8.3265
375.090454	51.383999	8.3270
377.808533	51.383999	8.3343
380.546265	51.383999	8.3480
383.303864	51.383999	8.3666
386.081451	51.383995	8.3909
388.879150	51.383999	8.4213
391.697144	51.383999	8.4579
394.535522	51.383999	8.5007
397.394501	51.383999	8.5508
400.274170	51.383999	8.6083
403.174744	51.383999	8.6768
406.096313	51.383999	8.7547
409.039062	51.383999	8.8576
412.003113	51.378567	9.0172
414.988647	51.383953	9.1845
417.995850	51.421978	9.3350
421.024811	51.470840	9.4258
424.075714	51.519295	9.3802
427.148743	51.556908	9.2744
430.244049	51.562378	9.1517
433.361786	51.557022	9.0363
436.502106	51.556999	8.9772
439.665161	51.556999	8.9431
442.851166	51.556999	8.9182
446.060242	51.556999	8.9040
449.292572	51.556999	8.8967
452.548340	51.556999	8.8960
455.827698	51.556999	8.9005
459.130798	51.556999	8.9100
462.457855	51.556999	8.9234
465.809021	51.556999	8.9409
469.184448	51.556999	8.9626
472.584381	51.556999	8.9879
476.008911	51.556999	9.0162
479.458252	51.556999	9.0479
482.932617	51.556999	9.0832
486.432159	51.556999	9.1219
489.957031	51.556999	9.1637
493.507477	51.556999	9.2089
497.083618	51.556999	9.2576
500.685699	51.556999	9.3098
504.313873	51.556999	9.3654
507.968323	51.557003	9.4248
511.649292	51.556999	9.4881
515.356934	51.556999	9.5558
519.091370	51.556999	9.6282
522.852966	51.556995	9.7057
526.641724	51.556999	9.7886
530.458008	51.556995	9.8777
534.301941	51.556999	9.9736
538.173706	51.556999	10.0776
542.073547	51.556999	10.1903
546.001648	51.556999	10.3145
549.958191	51.556999	10.4511
553.943420	51.556999	10.6075
557.957520	51.556999	10.7797
562.000671	51.556999	11.0031
566.073181	51.542892	11.3643
570.175171	51.556873	11.7070
574.306885	51.667461	11.8942
578.468567	51.782658	11.9520
582.660400	51.814075	11.8089
586.882568	51.817017	11.6226
591.135376	51.819130	11.5489
595.419006	51.817013	11.5260
599.733643	51.817001	11.5441
604.079590	51.817001	11.5997
608.456970	51.817001	11.6805
612.866089	51.817001	11.8035
617.307190	51.811634	11.9971
621.780457	51.816956	12.2163
626.286133	51.854912	12.4316
630.824463	51.902840	12.6234
635.395691	51.941868	12.7538
640.000000	51.981857	12.8487
644.637695	52.028339	12.9190
649.309021	52.075836	12.9728
654.014160	52.110676	13.0696
658.753418	52.162777	13.0663
663.527039	52.299061	12.7502
668.335205	52.395824	12.3861
673.178284	52.286137	12.1714
678.056396	52.163315	12.1019
682.969849	52.207371	12.3385
687.918945	52.296669	12.5824
692.903870	52.367653	12.5116
697.924927	52.421864	12.3506
702.982422	52.424389	12.2267
708.076477	52.421986	12.1173
713.207520	52.459965	12.0711
718.375732	52.508820	11.9994
723.581360	52.557278	11.8033
728.824707	52.594898	11.5609
734.106079	52.600384	11.3103
739.425720	52.595028	11.0748
744.783936	52.595001	10.9011
750.180908	52.595001	10.7575
755.617065	52.595001	10.6268
761.092529	52.595001	10.5104
766.607727	52.595001	10.4041
772.162903	52.595001	10.3073
777.758301	52.595001	10.2184
783.394287	52.595001	10.1363
789.071045	52.595001	10.0595
794.789001	52.595001	9.9882
800.548340	52.595001	9.9224
806.349487	52.595001	9.8612
812.192627	52.595001	9.8036
818.078125	52.595001	9.7502
824.006226	52.595001	9.7010
829.977295	52.595001	9.6561
835.991699	52.595001	9.6155
842.049622	52.594997	9.5791
848.151428	52.595001	9.5465
854.297485	52.595001	9.5191
860.488098	52.595001	9.4971
866.723572	52.595001	9.4830
873.004211	52.595001	9.4751
879.330322	52.595001	9.4859
885.702332	52.590633	9.5400
892.120483	52.594959	9.5998
898.585144	52.623436	9.6598
905.096680	52.664829	9.6473
911.655396	52.726044	9.4468
918.261597	52.767914	9.1790
924.915710	52.735924	8.9026
931.618042	52.682205	8.6916
938.368896	52.643379	8.6638
945.168762	52.613094	8.7475
952.017822	52.588921	8.9557
958.916504	52.594898	9.1494
965.865234	52.680023	9.1775
972.864319	52.767731	9.0876
979.914062	52.778828	8.8392
987.014954	52.768055	8.5481
994.167236	52.768002	8.3441
1001.371399	52.768002	8.1467
1008.627747	52.772121	7.9077
1015.936646	52.768047	7.6571
1023.298584	52.741806	7.3935
1030.713867	52.702148	7.1637
1038.182739	52.649956	7.0205
1045.705933	52.595230	6.9442
1053.283447	52.550934	6.9335
1060.916016	52.509174	6.9847
1068.603882	52.460316	7.1066
1076.347412	52.422119	7.2603
1084.147095	52.416557	7.4206
1092.003296	52.421978	7.5546
1099.916382	52.422001	7.6206
1107.886841	52.421997	7.6211
1115.915039	52.433109	7.5068
1124.001343	52.422108	7.3923
1132.146362	52.338417	7.3702
1140.350342	52.244335	7.4604
1148.613770	52.192535	7.7580
1156.937134	52.163074	8.1294
1165.320801	52.157928	8.4659
1173.765137	52.162968	8.7846
1182.270752	52.162998	9.0554
1190.838013	52.163002	9.3139
1199.467285	52.162998	9.5737
1208.159180	52.162998	9.8727
1216.913940	52.146832	10.3155
1225.732178	52.162838	10.7168
1234.614380	52.291985	10.9051
1243.560913	52.421593	10.9382
1252.572266	52.438210	10.7605
1261.648926	52.422089	10.5428
1270.791382	52.422001	10.4715
1280.000000	52.422001	10.4470
1289.275391	52.422001	10.4302
1298.618042	52.422001	10.4220
1308.028320	52.422001	10.4167
1317.506836	52.422001	10.3961
1327.054077	52.427429	10.3279
1336.670410	52.422058	10.2493
1346.356567	52.389408	10.1519
1356.112793	52.335239	10.1418
1365.939697	52.243919	10.3530
1375.837891	52.163269	10.6953
1385.807739	52.152237	11.1428
1395.849854	52.162941	11.6340
1405.964844	52.157631	12.0897
1416.152954	52.162945	12.5364
1426.415039	52.198769	12.9847
1436.751465	52.248787	13.4045
1447.162720	52.296284	13.7958
1457.649414	52.361687	14.0782
1468.212158	52.483391	14.1405
1478.851440	52.591663	14.0735
1489.567871	52.607883	13.8938
1500.361816	52.595074	13.7146
1511.234131	52.595188	13.6822
1522.185059	52.594997	13.7157
1533.215454	52.595001	13.7793
1544.325806	52.595001	13.8805
1555.516602	52.595001	14.0095
1566.788574	52.595001	14.1842
1578.142090	52.589573	14.4332
1589.578003	52.594936	14.7138
1601.096680	52.632942	14.9972
1612.698975	52.681786	15.2679
1624.385254	52.719448	15.5157
1636.156250	52.767746	15.6964
1648.012451	52.859501	15.7361
1659.954590	52.940762	15.7132
1671.983398	52.946400	15.6718
1684.099243	52.941002	15.6430
1696.302856	52.981052	15.6973
1708.594971	53.027794	15.7607
1720.976196	53.057201	15.7637
1733.447144	53.079910	15.7610
1746.008423	53.098801	15.7817
1758.660645	53.113941	15.8357
1771.404663	53.123020	15.9445
1784.240967	53.135929	16.1023
1797.170288	53.158943	16.3396
1810.193359	53.200790	16.5692
1823.310791	53.284519	16.7096
1836.523193	53.373665	16.7719
1849.831421	53.433964	16.7097
1863.236084	53.480812	16.6154
1876.737793	53.510303	16.5977
1890.337524	53.546799	16.5633
1904.035645	53.632198	16.4410
1917.833008	53.710747	16.2698
1931.730469	53.725742	16.0326
1945.728638	53.720043	15.8267
1959.828125	53.720566	15.7487
1974.029907	53.720005	15.7856
1988.334473	53.703838	16.0133
2002.742798	53.719830	16.2601
2017.255493	53.846001	16.3618
2031.873291	53.978535	16.3672
2046.597168	54.011429	16.2236
2061.427734	54.025925	16.0745
2076.365479	54.069256	16.1207
2091.411865	54.140629	16.1421
2106.566895	54.277340	15.9602
2121.832031	54.411503	15.6436
2137.207764	54.469704	15.1700
2152.694824	54.503883	14.6371
2168.294189	54.550072	14.1429
2184.006592	54.584877	13.6662
2199.832764	54.590069	13.2067
2215.773682	54.585026	12.7986
2231.830078	54.580444	12.5031
2248.002686	54.584949	12.2391
2264.292725	54.620522	11.9431
2280.700684	54.657860	11.6215
2297.227539	54.669041	11.2435
2313.874268	54.671001	10.8586
2330.641602	54.671814	10.5130
2347.530273	54.671005	10.1864
2364.541504	54.671001	9.8754
2381.676025	54.671001	9.5744
2398.934570	54.671001	9.2772
2416.318359	54.671005	8.9823
2433.827881	54.671001	8.6878
2451.464355	54.670998	8.3893
2469.228760	54.671001	8.0862
2487.121826	54.671005	7.7644
2505.144531	54.676369	7.3894
2523.297852	54.671062	7.0206
2541.582764	54.628212	6.7138
2560.000000	54.585159	6.4471
2578.550781	54.579617	6.2386
2597.236084	54.584965	6.0231
2616.056641	54.584999	5.7400
2635.013672	54.584995	5.3917
2654.108154	54.595795	4.9257
2673.340820	54.585125	4.4470
2692.713135	54.504360	4.0383
2712.225586	54.412411	3.7173
2731.879395	54.357895	3.5811
2751.675781	54.325100	3.4736
2771.615479	54.324924	3.2588
2791.699707	54.325031	2.9685
2811.929688	54.294197	2.5547
2832.305908	54.239315	2.1240
2852.830078	54.153133	1.7498
2873.502930	54.047489	1.4858
2894.325439	53.920441	1.4449
2915.298828	53.806458	1.5234
2936.424316	53.754055	1.6740
2957.702881	53.720146	1.8373
2979.135742	53.674522	1.9115
3000.723633	53.625229	1.9767
3022.468262	53.564953	2.0935
3044.370117	53.510220	2.2224
3066.430908	53.483292	2.3452
3088.651611	53.460114	2.4565
3111.033203	53.418514	2.5375
3133.577148	53.374210	2.6107
3156.284180	53.339664	2.6915
3179.156006	53.303185	2.7825
3202.193359	53.253250	2.8859
3225.397949	53.201241	3.0173
3248.770508	53.153454	3.2120
3272.312500	53.114151	3.4131
3296.024902	53.098812	3.5622
3319.909180	53.080120	3.6974
3343.966797	53.027527	3.8192
3368.198486	52.965302	3.9840
3392.605713	52.905136	4.2722
3417.189941	52.855194	4.6143
3441.952393	52.835068	4.9626
3466.894287	52.822060	5.3293
3492.016846	52.787632	5.7319
3517.321289	52.768024	6.1094
3542.809326	52.809898	6.4029
3568.481934	52.854836	6.6212
3594.340576	52.847961	6.7179
3620.386719	52.823143	6.8005
3646.621582	52.793640	6.9870
3673.046387	52.768097	7.2029
3699.662842	52.766495	7.4191
3726.472168	52.768002	7.6152
3753.475586	52.761436	7.7216
3780.675049	52.737164	7.8562
3808.071289	52.664413	8.1311
3835.666016	52.595276	8.4980
3863.460938	52.586113	8.9668
3891.457275	52.594944	9.4725
3919.656250	52.589573	9.9507
3948.059814	52.594936	10.4079
3976.668945	52.632904	10.8429
4005.485596	52.681744	11.2153
4034.510986	52.730217	11.4534
4063.746582	52.767860	11.6491
4093.194336	52.767956	11.8791
4122.855469	52.767963	12.1208
4152.730957	52.805897	12.4003
4182.823730	52.854759	12.6460
4213.133789	52.903225	12.7668
4243.664062	52.940868	12.8447
4274.415527	52.946384	12.9188
4305.389648	52.941036	13.0293
4336.588379	52.935574	13.2553
4368.013184	52.940933	13.5187
4399.665527	52.978905	13.7800
4431.547363	53.027756	14.0001
4463.660156	53.076210	14.0996
4496.005371	53.113853	14.1597
4528.585449	53.119381	14.2198
4561.401367	53.114033	14.3293
4594.455078	53.105511	14.5869
4627.748535	53.113888	14.8845
4661.283203	53.173901	15.1637
4695.060547	53.249622	15.3712
4729.083008	53.320190	15.3892
4763.352051	53.373810	15.3532
4797.869141	53.374901	15.3742
4832.636719	53.373966	15.4138
4867.655762	53.424774	15.4903
4902.928711	53.483723	15.5409
4938.457520	53.522224	15.4762
4974.243652	53.546921	15.3924
5010.289062	53.549572	15.3560
5046.595703	53.547009	15.3698
5083.165527	53.550766	15.4884
5120.000000	53.568863	15.6214
5157.101562	53.625317	15.6876
5194.472168	53.683735	15.7110
5232.113281	53.707790	15.6590
5270.027344	53.719955	15.6220
5308.216309	53.720154	15.7318
5346.681641	53.740807	15.8356
5385.426270	53.839958	15.8161
5424.451172	53.941559	15.6939
5463.758789	53.972980	15.4032
5503.351562	53.979008	15.0885
5543.230957	53.975887	14.9128
5583.399414	53.978943	14.7588
5623.859375	54.022266	14.5641
5664.611816	54.065815	14.3214
5705.660156	54.076878	13.9645
5747.005859	54.066116	13.6077
5788.650879	54.022743	13.3677
5830.597656	53.979183	13.1749
5872.848633	53.978607	13.0027
5915.405762	53.979031	12.8349
5958.271484	53.944462	12.6261
6001.447266	53.898251	12.4379
6044.936523	53.852551	12.3281
6088.740234	53.806232	12.2652
6132.861816	53.762150	12.2446
6177.303223	53.720203	12.2410
6222.066406	53.688866	12.2013
6267.154297	53.645275	12.2038
6312.568359	53.553673	12.3087
6358.312012	53.460423	12.5196
6404.386719	53.405659	12.8980
6450.795898	53.374107	13.3308
6497.541016	53.368618	13.7201
6544.625000	53.373966	14.0783
6592.049805	53.374001	14.3752
6639.818359	53.374001	14.6417
6687.933594	53.374001	14.8986
6736.396973	53.374001	15.1467
6785.211426	53.374001	15.3923
6834.379883	53.374001	15.6397
6883.904785	53.374001	15.8899
6933.788574	53.374001	16.1595
6984.033691	53.368637	16.4816
7034.642578	53.373928	16.8084
7085.618652	53.411335	17.1165
7136.963867	53.459736	17.3639
7188.681152	53.508640	17.4749
7240.773438	53.546852	17.5258
7293.243164	53.552448	17.5604
7346.092773	53.547039	17.6047
7399.325684	53.547001	17.7088
7452.944336	53.547001	17.8442
7506.951172	53.547001	17.9940
7561.350098	53.547001	18.1720
7616.142578	53.542759	18.4007
7671.332031	53.546940	18.6378
7726.921875	53.579002	18.8461
7782.914551	53.614826	19.0311
7839.312500	53.628933	19.1870
7896.119629	53.643902	19.3114
7953.337891	53.683601	19.3969
8010.971191	53.719845	19.4528
8069.021973	53.724758	19.4726
8127.493164	53.720036	19.4968
8186.388672	53.720001	19.5737
8245.710938	53.720001	19.6744
8305.461914	53.720001	19.7856
8365.647461	53.720001	19.9073
8426.267578	53.720562	20.0362
8487.328125	53.720009	20.1693
8548.831055	53.720390	20.2798
8610.779297	53.711086	20.4350
8673.176758	53.667606	20.7132
8736.026367	53.633110	21.0560
8799.331055	53.659058	21.4365
8863.094727	53.697803	21.8359
8927.320312	53.701595	22.2392
8992.010742	53.719822	22.6082
9057.170898	53.807613	22.9032
9122.802734	53.902538	23.1122
9188.910156	53.946808	23.1849
9255.497070	53.978832	23.1970
9322.566406	54.024887	23.2133
9390.121094	54.065815	23.2180
9458.166016	54.085106	23.2156
9526.704102	54.099915	23.2080
9595.738281	54.127979	23.1980
9665.273438	54.151897	23.1880
9735.311523	54.155258	23.1738
9805.857422	54.152020	23.1789
9876.915039	54.152000	23.2314
9948.487305	54.152000	23.3145
10020.578125	54.152000	23.4155
10093.191406	54.152000	23.5492
10166.331055	54.146572	23.7443
10240.000000	54.151920	23.9469
10314.203125	54.189892	24.1346
10388.944336	54.238750	24.2398
10464.226562	54.297993	24.1191
10540.054688	54.325001	23.9757
10616.432617	54.244453	23.9666
10693.363281	54.152473	24.0938
10770.852539	54.135746	24.4752
10848.902344	54.151844	24.9177
10927.517578	54.189880	25.2568
11006.703125	54.238720	25.5168
11086.461914	54.287186	25.6441
11166.798828	54.324841	25.7117
11247.718750	54.330383	25.7666
11329.223633	54.325043	25.8356
11411.320312	54.325001	25.9702
11494.011719	54.325001	26.1420
11577.301758	54.325001	26.3344
11661.195312	54.324997	26.5616
11745.697266	54.321445	26.8427
11830.811523	54.324951	27.1473
11916.542969	54.351467	27.4447
12002.894531	54.381840	27.7542
12089.873047	54.389679	28.1088
12177.480469	54.411789	28.4393
12265.723633	54.496365	28.6861
12354.606445	54.584572	28.8504
12444.132812	54.621796	28.8814
12534.308594	54.640923	28.8760
12625.136719	54.659424	28.9208
12716.624023	54.670959	28.9985
12808.773438	54.672882	29.1127
12901.591797	54.671017	29.2848
12995.082031	54.665825	29.5523
13089.250000	54.670929	29.8713
13184.099609	54.701233	30.2453
13279.636719	54.753658	30.5686
13375.867188	54.847168	30.7043
13472.793945	54.930611	30.7469
13570.422852	54.942081	30.7165
13668.759766	54.931087	30.7039
13767.809570	54.931000	30.8212
13867.577148	54.931000	31.0265
13968.067383	54.922329	31.3433
14069.285156	54.930866	31.6841
14171.237305	54.997955	31.9645
14273.927734	55.069656	32.1969
14377.362305	55.095608	32.3240
14481.546875	55.103985	32.4720
14586.486328	55.097580	32.7838
14692.185547	55.103882	33.1567
14798.651367	55.164898	33.5440
14905.888672	55.240559	33.9160
15013.902344	55.295494	34.2243
15122.700195	55.355621	34.4787
15232.285156	55.447201	34.6620
15342.664062	55.535511	34.8072
15453.843750	55.580204	34.9374
15565.829102	55.622738	35.0663
15678.625000	55.699177	35.2396
15792.239258	55.787502	35.3844
15906.675781	55.877510	35.4380
16021.942383	55.968513	35.4124
16138.043945	56.060944	35.2820
16254.986328	56.141586	35.0972
16372.777344	56.190136	34.8930
16491.421875	56.227802	34.6901
16610.923828	56.271252	34.5328
16731.294922	56.314747	34.3849
16852.535156	56.357742	34.2299
16974.656250	56.400742	34.0512
17097.662109	56.449596	33.8123
17221.558594	56.487820	33.5566
17346.353516	56.493446	33.3072
17472.052734	56.488041	33.0892
17598.662109	56.487999	32.9459
17726.189453	56.487999	32.8455
17854.640625	56.487999	32.7699
17984.021484	56.487999	32.7192
18114.341797	56.487999	32.6877
18245.605469	56.488003	32.6760
18377.820312	56.487999	32.6830
18510.994141	56.487999	32.7078
18645.132812	56.487999	32.7484
18780.242188	56.487999	32.8066
18916.332031	56.487999	32.8828
19053.408203	56.487999	32.9794
19191.476562	56.487999	33.0949
19330.546875	56.487999	33.2421
19470.623047	56.484131	33.4438
19611.714844	56.487938	33.6687
19753.830078	56.514931	33.8985
19896.974609	56.549778	34.1148
