"Directivity Index"			
"Sound Power DI"		"Early Reflections DI"	
"Frequency [Hz]"	"[dB] Directivity Index "	"Frequency [Hz]"	"[dB] Directivity Index "
20.5078	0.393949	20.5078	0.149522
21.9727	0.484095	21.9727	0.176703
23.4375	0.447367	23.4375	0.164999
24.9023	0.497127	24.9023	0.185161
26.3672	0.447947	26.3672	0.161361
27.832	0.541062	27.832	0.201309
29.2969	0.558089	29.2969	0.208771
30.7617	0.582622	30.7617	0.222819
32.2266	0.557862	32.2266	0.213022
33.6914	0.533121	33.6914	0.203673
35.1562	0.611538	35.1562	0.231182
36.6211	0.623079	36.6211	0.238565
38.0859	0.656153	38.0859	0.249506
39.5508	0.631619	39.5508	0.242372
41.0156	0.504059	41.0156	0.199051
42.4805	0.54651	42.4805	0.221612
43.9453	0.580953	43.9453	0.235616
45.4102	0.591785	45.4102	0.240393
46.875	0.571937	46.875	0.235207
48.3398	0.57067	48.3398	0.23701
51.2695	0.636818	51.2695	0.267443
52.7344	0.641347	52.7344	0.269926
54.1992	0.611158	54.1992	0.262146
55.6641	0.608173	55.6641	0.263344
58.5938	0.675049	58.5938	0.29
60.0586	0.652275	60.0586	0.287301
62.9883	0.685693	62.9883	0.305727
64.4531	0.704417	64.4531	0.317576
67.3828	0.714518	67.3828	0.329506
68.8477	0.707364	68.8477	0.328883
71.7773	0.733176	71.7773	0.343005
74.707	0.751908	74.707	0.35391
77.6367	0.757527	77.6367	0.366082
79.1016	0.776685	79.1016	0.378243
82.0312	0.825783	82.0312	0.401883
84.9609	0.841341	84.9609	0.410538
87.8906	0.779778	87.8906	0.401323
90.8203	0.869471	90.8203	0.447739
95.2148	1.01295	95.2148	0.508479
98.1445	1.06144	98.1445	0.529124
101.074	1.09454	101.074	0.546932
105.469	1.17741	105.469	0.582221
108.398	1.27532	108.398	0.622465
112.793	1.33557	112.793	0.663189
117.188	1.32831	117.188	0.674583
120.117	1.39034	120.117	0.704579
124.512	1.42828	124.512	0.733593
128.906	1.47975	128.906	0.762946
133.301	1.53744	133.301	0.800333
139.16	1.69537	139.16	0.874356
143.555	1.77978	143.555	0.909212
147.949	1.87658	147.949	0.957317
153.809	2.09697	153.809	1.05675
159.668	2.04059	159.668	1.04854
165.527	2.06063	165.527	1.07881
171.387	2.24599	171.387	1.14784
177.246	2.21361	177.246	1.15154
183.105	2.41908	183.105	1.23686
188.965	2.57313	188.965	1.3195
196.289	2.60281	196.289	1.37677
203.613	3.15292	203.613	1.49314
210.938	3.05486	210.938	1.43631
218.262	2.88798	218.262	1.47566
225.586	3.22296	225.586	1.59833
232.91	3.41476	232.91	1.62256
241.699	3.38629	241.699	1.60331
250.488	3.83021	250.488	1.82259
259.277	3.44244	259.277	1.68988
268.066	3.54608	268.066	1.75967
276.855	3.62882	276.855	1.76589
287.109	3.58169	287.109	1.75064
297.363	4.20768	297.363	1.98602
307.617	3.49525	307.617	1.68253
319.336	3.66916	319.336	1.89121
329.59	3.51006	329.59	1.78878
341.309	3.42669	341.309	1.91069
353.027	4.13165	353.027	2.10828
366.211	4.5747	366.211	2.21189
379.395	4.05478	379.395	2.03203
392.578	4.20048	392.578	2.18561
405.762	4.48296	405.762	2.40389
420.41	4.28497	420.41	2.28854
435.059	4.39683	435.059	2.436
451.172	5.55795	451.172	2.53969
465.82	4.84284	465.82	2.29248
483.398	3.99225	483.398	2.23044
499.512	4.77463	499.512	2.52415
517.09	5.08541	517.09	2.66337
536.133	5.87056	536.133	2.77489
555.176	5.52376	555.176	2.44028
574.219	5.46913	574.219	2.4279
594.727	5.31786	594.727	2.41462
615.234	4.96971	615.234	2.1232
637.207	5.24806	637.207	2.23443
659.18	4.89435	659.18	2.16981
682.617	4.52187	682.617	1.99054
707.52	4.53696	707.52	1.67262
732.422	3.93243	732.422	1.30857
757.324	3.78864	757.324	1.2639
785.156	3.72295	785.156	0.974382
811.523	3.54609	811.523	1.03842
840.82	3.64696	840.82	1.23758
870.117	3.7676	870.117	1.10526
900.879	3.80966	900.879	1.13976
933.105	3.75742	933.105	1.08032
965.332	3.82338	965.332	1.1913
1,000.49	3.43124	1,000.49	1.0357
1,035.64	3.83454	1,035.64	1.21826
1,072.27	3.1564	1,072.27	0.643767
1,108.89	2.9989	1,108.89	0.672489
1,148.44	2.50576	1,148.44	0.371556
1,189.45	3.08431	1,189.45	0.734462
1,230.47	3.29945	1,230.47	0.691095
1,274.41	3.74219	1,274.41	0.958042
1,319.82	4.37147	1,319.82	1.29831
1,366.7	4.01032	1,366.7	1.11702
1,413.57	4.01062	1,413.57	0.969598
1,463.38	4.35736	1,463.38	1.28353
1,516.11	4.36791	1,516.11	1.48308
1,568.85	4.25923	1,568.85	1.42454
1,624.51	4.91916	1,624.51	1.63559
1,681.64	5.29064	1,681.64	1.75704
1,741.7	5.35568	1,741.7	1.60358
1,803.22	5.86705	1,803.22	2.10541
1,866.21	5.73514	1,866.21	2.10765
1,932.13	6.04703	1,932.13	2.36105
1,999.51	6.6671	1,999.51	2.66294
2,069.82	7.10333	2,069.82	2.89192
2,143.07	7.02058	2,143.07	2.86801
2,219.24	6.62985	2,219.24	2.74838
2,296.88	6.2139	2,296.88	2.34128
2,378.91	6.31144	2,378.91	2.35776
2,462.4	6.56448	2,462.4	2.49581
2,548.83	6.50504	2,548.83	2.5823
2,639.65	5.53676	2,639.65	2.23203
2,731.93	5.5169	2,731.93	2.13182
2,828.61	5.56014	2,828.61	2.13402
2,928.22	5.31238	2,928.22	1.97691
3,030.76	5.06747	3,030.76	1.79729
3,137.7	4.79328	3,137.7	1.47381
3,249.02	4.6383	3,249.02	1.32977
3,363.28	4.66006	3,363.28	1.32567
3,481.93	4.56597	3,481.93	1.27313
3,604.98	4.66569	3,604.98	1.43553
3,732.42	5.34997	3,732.42	1.93275
3,864.26	4.72213	3,864.26	1.50765
4,000.49	4.981	4,000.49	1.7087
4,141.11	5.48914	4,141.11	1.86158
4,287.6	5.68708	4,287.6	1.90713
4,438.48	5.93694	4,438.48	2.0791
4,595.21	6.07238	4,595.21	2.02085
4,756.35	6.60942	4,756.35	2.3834
4,924.8	7.18938	4,924.8	2.74743
5,097.66	7.32435	5,097.66	2.85976
5,277.83	7.45509	5,277.83	3.0512
5,463.87	7.39108	5,463.87	2.87418
5,657.23	7.23941	5,657.23	2.85635
5,856.45	6.91715	5,856.45	2.57782
6,062.99	6.7542	6,062.99	2.52526
6,276.86	6.43937	6,276.86	2.36675
6,498.05	6.46236	6,498.05	2.47364
6,726.56	6.4921	6,726.56	2.54931
6,963.87	6.4787	6,963.87	2.38654
7,209.96	6.61356	7,209.96	2.54046
7,464.84	6.50291	7,464.84	2.39321
7,727.05	6.93631	7,727.05	2.6722
7,999.51	6.85329	7,999.51	2.56335
8,282.23	7.02281	8,282.23	2.80306
8,573.73	7.22422	8,573.73	3.03702
8,876.95	7.06769	8,876.95	2.81123
9,188.96	7.27411	9,188.96	2.83108
9,514.16	7.72692	9,514.16	3.08852
9,849.61	7.96059	9,849.61	3.2144
10,196.8	8.1389	10,196.8	3.33195
10,555.7	8.25746	10,555.7	3.47519
10,927.7	8.55413	10,927.7	3.64909
11,313	8.8185	11,313	3.80884
11,712.9	8.90566	11,712.9	3.87692
12,126	8.94483	12,126	3.87071
12,553.7	9.07825	12,553.7	3.96873
12,996.1	9.17498	12,996.1	4.07482
13,454.6	9.33278	13,454.6	4.21847
13,929.2	9.44092	13,929.2	4.27021
14,419.9	9.4848	14,419.9	4.20834
14,928.2	9.69286	14,928.2	4.29387
15,455.6	9.78263	15,455.6	4.3603
16,000.5	9.78726	16,000.5	4.36801
16,564.5	9.76953	16,564.5	4.34085
17,148.9	9.99024	17,148.9	4.46244
17,752.4	10.0544	17,752.4	4.49583
18,379.4	10.22	18,379.4	4.62959
19,026.9	10.3693	19,026.9	4.7403
19,697.8	10.5162	19,697.8	4.849
19,999.5	10.514	19,999.5	4.81862
