* Measurement data measured by REW V5.20 Beta 53
* Source: C:\Users\Napie\Music\REW\Top Speakers\New Folder\8-ER.txt
* Format: Comma/Tab/Space delimited data
* Dated: May 26, 2020 3:10:29 PM
* REW Settings:
*  C-weighting compensation: Off
*  Target level: 75.0 dB
* Note: ; Measurement imported from C:\Users\Napie\Music\REW\Top Speakers\New Folder\8-ER.txt Format: Comma/Tab/Space delimited data 623 values loaded, 5 Hz to 39,792 Hz log spaced 
* Measurement: 8-ER
* Smoothing: None
* Frequency Step: 1/96 octave
* Start Frequency: 20.000 Hz
*
* Freq(Hz)	SPL(dB)	Phase(degrees)
20.000000	59.214806	-126.7084
20.144928	59.426998	-127.4000
20.290907	59.623837	-128.0934
20.437943	59.768085	-128.7065
20.586044	59.910896	-129.2806
20.735220	60.109695	-129.8289
20.885475	60.308773	-130.3544
21.036821	60.453262	-130.8655
21.189262	60.597805	-131.3594
21.342808	60.799252	-131.8447
21.497467	60.996777	-132.2955
21.653246	61.126717	-132.7096
21.810154	61.253819	-133.0237
21.968201	61.418900	-133.0824
22.127390	61.630737	-133.1588
22.287735	61.951454	-133.5446
22.449242	62.261784	-134.0316
22.611917	62.406559	-134.4992
22.775772	62.554775	-134.9744
22.940815	62.868374	-135.3742
23.107054	63.214546	-135.9081
23.274498	63.503239	-136.8203
23.443153	63.766659	-137.9254
23.613033	64.011864	-139.1389
23.784142	64.224831	-140.3999
23.956491	64.386177	-141.6428
24.130091	64.518860	-142.7977
24.304947	64.628487	-143.7285
24.481071	64.747833	-144.5689
24.658470	64.931923	-145.4102
24.837156	65.119751	-146.2458
25.017136	65.252716	-147.1183
25.198421	65.377869	-147.9722
25.381020	65.529228	-148.7440
25.564941	65.687851	-149.5003
25.750195	65.845261	-150.2886
25.936790	66.003799	-151.1030
26.124741	66.166901	-151.9637
26.314051	66.322777	-152.8397
26.504732	66.453888	-153.7043
26.696796	66.580841	-154.5639
26.890253	66.725647	-155.4166
27.085112	66.866837	-156.2610
27.281382	66.983101	-157.0955
27.479073	67.095840	-157.9199
27.678198	67.226807	-158.7359
27.878765	67.353821	-159.5368
28.080786	67.453926	-160.3168
28.284271	67.550865	-161.0750
28.489231	67.668968	-161.8096
28.695675	67.783844	-162.5170
28.903616	67.871445	-163.2049
29.113064	67.954872	-163.8371
29.324028	68.045181	-164.3372
29.536524	68.154861	-164.8344
29.750557	68.320747	-165.4547
29.966141	68.480835	-166.1332
30.183289	68.568039	-166.8838
30.402010	68.633919	-167.5962
30.622314	68.706093	-168.1223
30.844217	68.789894	-168.5885
31.067726	68.912895	-169.0825
31.292856	69.035835	-169.5733
31.519617	69.117271	-170.0772
31.748020	69.190910	-170.5385
31.978081	69.278137	-170.8841
32.209808	69.374870	-171.1816
32.443211	69.489975	-171.4883
32.678310	69.605850	-171.7637
32.915108	69.698387	-171.9902
33.153625	69.795868	-172.1568
33.393871	69.918610	-172.2111
33.635857	70.066757	-172.2589
33.879597	70.259827	-172.4113
34.125103	70.459732	-172.6007
34.372387	70.608902	-172.7484
34.621464	70.784691	-172.9975
34.872345	71.090630	-173.4906
35.125042	71.391670	-174.1531
35.379574	71.546715	-174.9929
35.635948	71.675842	-175.9029
35.894180	71.877731	-176.7503
36.154285	72.076729	-177.6197
36.416275	72.213867	-178.5703
36.680161	72.336807	-179.5465
36.945961	72.482841	179.5115
37.213688	72.624809	178.5325
37.483353	72.756317	177.4070
37.754974	72.851891	176.3087
38.028561	72.857071	175.3902
38.304131	72.851990	174.6060
38.581699	72.923264	173.9679
38.861279	72.997902	173.4537
39.142883	73.003998	173.0662
39.426529	73.023941	172.7424
39.712231	73.153496	172.3966
40.000000	73.281837	172.1004
40.289856	73.285187	171.8972
40.581814	73.296936	171.7861
40.875885	73.440750	171.8430
41.172089	73.623718	171.8810
41.470440	73.787231	171.6988
41.770950	73.950729	171.4135
42.073643	74.114235	171.0784
42.378525	74.277771	170.6866
42.685616	74.441269	170.2503
42.994934	74.604774	169.7647
43.306492	74.768326	169.2381
43.620308	74.931747	168.6430
43.936401	75.103241	167.9291
44.254780	75.257782	167.1722
44.575470	75.359291	166.4291
44.898483	75.448853	165.7061
45.223835	75.566139	165.0405
45.551544	75.679840	164.3969
45.881630	75.768883	163.7263
46.214108	75.841904	163.1059
46.548996	75.895615	162.5995
46.886307	75.944923	162.1985
47.226067	76.007637	161.9030
47.568283	76.071892	161.7501
47.912983	76.110909	161.8323
48.260181	76.186813	161.9847
48.609894	76.385025	162.0850
48.962143	76.609665	162.0961
49.316940	76.776314	161.8978
49.674313	76.934738	161.6175
50.034271	77.110901	161.3664
50.396843	77.292717	161.0745
50.762039	77.483643	160.6740
51.129883	77.662712	160.2687
51.500389	77.789780	159.9577
51.873581	77.925735	159.6874
52.249481	78.134743	159.4695
52.628101	78.367607	159.2065
53.009464	78.593430	158.7841
53.393593	78.820610	158.2640
53.780506	79.047180	157.6711
54.170223	79.273628	157.0032
54.562763	79.499634	156.2675
54.958145	79.725639	155.4593
55.356396	79.952126	154.5816
55.757530	80.178627	153.6197
56.161572	80.404625	152.5782
56.568542	80.630623	151.4021
56.978462	80.873650	149.9931
57.391350	81.083664	148.4848
57.807232	81.194908	146.9481
58.226128	81.270889	145.4744
58.648056	81.357796	144.2003
59.073048	81.442863	143.0628
59.501114	81.515106	142.0959
59.932281	81.614777	141.1447
60.366577	81.802948	140.0934
60.804020	82.006668	138.8583
61.244629	82.178741	137.2429
61.688435	82.301842	135.4711
62.135452	82.336502	133.6237
62.585712	82.302116	131.9366
63.039234	82.173744	130.7183
63.496040	82.045181	129.8342
63.956161	82.018242	129.3450
64.419617	82.044907	128.9707
64.886421	82.128525	128.4036
65.356621	82.215874	127.7851
65.830215	82.232231	127.1487
66.307251	82.244957	126.5142
66.787743	82.317978	125.9040
67.271713	82.387901	125.3439
67.759193	82.385010	124.8759
68.250206	82.390961	124.4747
68.744774	82.485245	124.1683
69.242928	82.605789	123.8386
69.744690	82.714119	123.3419
70.250084	82.817810	122.7811
70.759148	82.906708	122.2169
71.271896	82.995842	121.6341
71.788361	83.100861	121.0461
72.308571	83.209785	120.4262
72.832550	83.316238	119.7443
73.360321	83.418816	119.0244
73.891922	83.513321	118.2800
74.427376	83.601837	117.5125
74.966705	83.689964	116.7022
75.509949	83.762886	115.9244
76.057121	83.791641	115.2629
76.608261	83.823906	114.6731
77.163399	83.910675	114.1628
77.722557	84.013786	113.6580
78.285767	84.109314	113.0711
78.853058	84.204819	112.4493
79.424461	84.299820	111.8115
80.000000	84.394814	111.1553
80.579712	84.490318	110.4844
81.163628	84.585815	109.7983
81.751770	84.680817	109.0979
82.344177	84.775803	108.3825
82.940880	84.871307	107.6545
83.541901	84.966820	106.9055
84.147285	85.064247	106.1183
84.757050	85.156830	105.3215
85.371231	85.230545	104.5574
85.989868	85.308830	103.7677
86.612984	85.428947	102.8806
87.240616	85.535828	101.9778
87.872803	85.562782	101.1071
88.509560	85.580948	100.2986
89.150940	85.647835	99.6572
89.796967	85.738777	99.0054
90.447670	85.864861	98.1507
91.103088	85.975807	97.2409
91.763260	85.999039	96.3531
92.428215	86.011963	95.5106
93.097992	86.081337	94.8086
93.772614	86.167816	94.1074
94.452133	86.261879	93.2475
95.136566	86.339867	92.3817
95.825966	86.349800	91.6358
96.520363	86.366928	90.9354
97.219788	86.473808	90.2758
97.924286	86.597748	89.5725
98.633881	86.685463	88.6956
99.348625	86.759865	87.7758
100.068542	86.818245	86.9323
100.793686	86.884819	86.0721
101.524078	86.995766	85.1584
102.259766	87.112717	84.1417
103.000778	87.213058	82.9129
103.747162	87.284904	81.6145
104.498962	87.295761	80.3438
105.256203	87.285027	79.1292
106.018929	87.285004	78.0526
106.787186	87.285004	77.0499
107.561012	87.285004	76.0834
108.340446	87.285004	75.1544
109.125526	87.285004	74.2523
109.916290	87.285004	73.3755
110.712791	87.285004	72.5199
111.515060	87.285004	71.6837
112.323143	87.285004	70.8639
113.137085	87.285004	70.0596
113.956924	87.285004	69.2697
114.782700	87.285004	68.4919
115.614464	87.285004	67.7235
116.452255	87.285004	66.9644
117.296112	87.285004	66.2141
118.146095	87.285004	65.4715
119.002228	87.285004	64.7354
119.864563	87.285011	64.0049
120.733154	87.285004	63.2796
121.608040	87.285004	62.5575
122.489258	87.285004	61.8372
123.376869	87.285004	61.1167
124.270905	87.285004	60.3945
125.171425	87.285004	59.6673
126.078468	87.285004	58.9339
126.992081	87.285004	58.1866
127.912323	87.285004	57.4263
128.839233	87.285004	56.6256
129.772842	87.292686	55.7416
130.713242	87.285042	54.8218
131.660431	87.237411	53.8658
132.614502	87.162247	52.9763
133.575485	87.055328	52.2606
134.543427	86.942207	51.7059
135.518387	86.842407	51.3919
136.500412	86.770096	51.1465
137.489548	86.775352	50.7698
138.485855	86.770073	50.4217
139.489380	86.641312	50.1829
140.500168	86.512238	50.0940
141.518295	86.482300	50.3285
142.543793	86.511856	50.5695
143.576721	86.617661	50.5083
144.617142	86.728790	50.2886
145.665100	86.752274	49.9443
146.720642	86.769913	49.5023
147.783844	86.858322	49.0051
148.854752	86.941826	48.4386
149.933411	86.952759	47.7600
151.019897	86.942039	47.0966
152.114243	86.931320	46.6259
153.216522	86.941925	46.1554
154.326797	87.027267	45.5405
155.445114	87.112831	44.8118
156.571533	87.123695	43.9301
157.706116	87.113029	42.9633
158.848923	87.128990	41.9335
160.000000	87.113091	40.9383
161.159424	86.990761	40.0888
162.327255	86.857269	39.3665
163.503540	86.804901	38.8369
164.688354	86.770073	38.3581
165.881760	86.717827	37.7700
167.083801	86.653191	37.1905
168.294571	86.560867	36.6990
169.514099	86.467216	36.2530
170.742462	86.406021	35.8345
171.979736	86.340195	35.4480
173.225967	86.239021	35.0461
174.481232	86.116295	34.7674
175.745605	85.957726	34.7727
177.019119	85.817284	34.9504
178.301880	85.759399	35.2849
179.593933	85.739021	35.6461
180.895340	85.734123	35.8788
182.206177	85.738976	36.0417
183.526520	85.738998	36.1334
184.856430	85.738998	36.1809
186.195984	85.738998	36.2102
187.545227	85.738991	36.2230
188.904266	85.738998	36.2283
190.273132	85.738998	36.2310
191.651932	85.738998	36.2354
193.040726	85.738998	36.2520
194.439575	85.738251	36.2863
195.848572	85.738991	36.3557
197.267761	85.738739	36.4864
198.697250	85.750946	36.6566
200.137085	85.782516	36.9149
201.587372	85.850784	37.0758
203.048157	86.009140	36.9282
204.519531	86.156639	36.5962
206.001556	86.181618	36.0739
207.494324	86.168060	35.5432
208.997925	86.163376	35.2386
210.512405	86.167961	34.9985
212.037857	86.208572	34.7355
213.574371	86.252899	34.4567
215.122025	86.269150	34.1338
216.680893	86.281960	33.7870
218.251053	86.312721	33.4276
219.832581	86.339943	33.0541
221.425583	86.343620	32.6595
223.030121	86.340012	32.2720
224.646286	86.339996	31.9257
226.274170	86.339996	31.5958
227.913849	86.339996	31.2708
229.565399	86.339996	30.9438
231.228928	86.341995	30.6007
232.904510	86.340019	30.2530
234.592224	86.327408	29.9016
236.292191	86.308060	29.5648
238.004456	86.284439	29.2523
239.729126	86.254089	28.9926
241.466309	86.207733	28.8321
243.216080	86.168083	28.7272
244.978516	86.162621	28.6621
246.753738	86.167976	28.6002
248.541809	86.167999	28.4890
250.342850	86.167999	28.3604
252.156937	86.167999	28.2296
253.984161	86.167999	28.0953
255.824646	86.167999	27.9609
257.678467	86.167999	27.8273
259.545685	86.167999	27.6963
261.426483	86.167999	27.5684
263.320862	86.167999	27.4441
265.229004	86.167999	27.3254
267.150970	86.167999	27.2133
269.086853	86.167999	27.1102
271.036774	86.167999	27.0153
273.000824	86.167999	26.9392
274.979095	86.165504	26.8953
276.971710	86.167976	26.8750
278.978760	86.179695	26.9033
281.000336	86.207901	26.8942
283.036591	86.276291	26.7512
285.087585	86.339844	26.5298
287.153442	86.348251	26.2295
289.234283	86.340027	25.9227
291.330200	86.339996	25.6990
293.441284	86.339996	25.5085
295.567688	86.339996	25.3300
297.709503	86.339996	25.1664
299.866821	86.339996	25.0139
302.039795	86.339996	24.8724
304.228485	86.339996	24.7409
306.433044	86.340004	24.6193
308.653595	86.339996	24.5070
310.890228	86.339989	24.4043
313.143066	86.339996	24.3109
315.412231	86.339996	24.2282
317.697845	86.339996	24.1569
320.000000	86.339996	24.0981
322.318848	86.339996	24.0523
324.654510	86.340004	24.0221
327.007080	86.339996	24.0092
329.376709	86.339996	24.0170
331.763519	86.339996	24.0468
334.167603	86.339996	24.1068
336.589142	86.339996	24.1971
339.028198	86.339996	24.3424
341.484924	86.334625	24.5748
343.959473	86.339958	24.8731
346.451935	86.372948	25.2362
348.962463	86.425827	25.6348
351.491211	86.488350	26.0769
354.038239	86.584656	26.4501
356.603760	86.756821	26.6399
359.187866	86.941460	26.6592
361.790680	87.077065	26.4484
364.412354	87.198662	26.1111
367.053040	87.320831	25.7573
369.712860	87.444611	25.3105
372.391968	87.584221	24.7280
375.090454	87.714653	24.0162
377.808533	87.817627	23.1254
380.546265	87.886864	22.1818
383.303864	87.897758	21.2917
386.081451	87.887032	20.4683
388.879150	87.887001	19.7798
391.697144	87.887001	19.1638
394.535522	87.887001	18.5799
397.394501	87.887001	18.0276
400.274170	87.887001	17.4949
403.174744	87.887001	16.9766
406.096313	87.887001	16.4694
409.039062	87.887001	15.9556
412.003113	87.892494	15.4005
414.988647	87.887047	14.8527
417.995850	87.848396	14.3367
421.024811	87.799164	13.8923
424.075714	87.751633	13.5936
427.148743	87.715080	13.3636
430.244049	87.709740	13.1567
433.361786	87.714973	12.9507
436.502106	87.714996	12.6980
439.665161	87.714996	12.4288
442.851166	87.714996	12.1584
446.060242	87.714996	11.8859
449.292572	87.714996	11.6146
452.548340	87.714989	11.3458
455.827698	87.714996	11.0807
459.130798	87.714996	10.8228
462.457855	87.714996	10.5709
465.809021	87.714996	10.3397
469.184448	87.709625	10.1617
472.584381	87.714951	9.9825
476.008911	87.755547	9.7589
479.458252	87.800865	9.4900
482.932617	87.821762	9.1501
486.432159	87.837952	8.7703
489.957031	87.864738	8.3717
493.507477	87.886948	7.9573
497.083618	87.890068	7.5303
500.685699	87.887016	7.1104
504.313873	87.887001	6.7239
507.968323	87.887001	6.3541
511.649292	87.887001	5.9917
515.356934	87.887001	5.6411
519.091370	87.887001	5.2987
522.852966	87.887001	4.9800
526.641724	87.881630	4.7151
530.458008	87.886955	4.4579
534.301941	87.924538	4.1809
538.173706	87.972832	3.8572
542.073547	88.015350	3.4385
546.001648	88.057854	2.9607
549.958191	88.095428	2.4734
553.943420	88.143814	1.8891
557.957520	88.235069	1.1205
562.000671	88.315788	0.2153
566.073181	88.326767	-0.8168
570.175171	88.316048	-1.9481
574.306885	88.332108	-3.1671
578.468567	88.316147	-4.4167
582.660400	88.207016	-5.6746
586.882568	88.058540	-6.8253
591.135376	87.901535	-7.7038
595.419006	87.745506	-8.4347
599.733643	87.619354	-9.0788
604.079590	87.495453	-9.6670
608.456970	87.357193	-10.2862
612.866089	87.199570	-10.8293
617.307190	86.999443	-11.2067
621.780457	86.794662	-11.4504
626.286133	86.631905	-11.5869
630.824463	86.462593	-11.5465
635.395691	86.221184	-11.2366
640.000000	86.003639	-10.7499
644.637695	85.913406	-10.1055
649.309021	85.865135	-9.4332
654.014160	85.793602	-8.8766
658.753418	85.739143	-8.4144
663.527039	85.741104	-8.0878
668.335205	85.739044	-7.8497
673.178284	85.670776	-7.7079
678.056396	85.579330	-7.5387
682.969849	85.487885	-7.2166
687.918945	85.395309	-6.7538
692.903870	85.297806	-6.0940
697.924927	85.226173	-5.3208
702.982422	85.220200	-4.4760
708.076477	85.249840	-3.6309
713.207520	85.290871	-2.8440
718.375732	85.364670	-2.1970
723.581360	85.511467	-1.8350
728.824707	85.651573	-1.6276
734.106079	85.683243	-1.4929
739.425720	85.710846	-1.4252
744.783936	85.830772	-1.3402
750.180908	85.968513	-1.3915
755.617065	86.084259	-1.7714
761.092529	86.167778	-2.2820
766.607727	86.180450	-2.7990
772.162903	86.168060	-3.2883
777.758301	86.167999	-3.6520
783.394287	86.167999	-3.9609
789.071045	86.167999	-4.2554
794.789001	86.167999	-4.5330
800.548340	86.167999	-4.8043
806.349487	86.167999	-5.0710
812.192627	86.167999	-5.3379
818.078125	86.167999	-5.6071
824.006226	86.167999	-5.8816
829.977295	86.167999	-6.1640
835.991699	86.167999	-6.4568
842.049622	86.167999	-6.7629
848.151428	86.167999	-7.0840
854.297485	86.167999	-7.4257
860.488098	86.167999	-7.7905
866.723572	86.167999	-8.1885
873.004211	86.167999	-8.6183
879.330322	86.167999	-9.1169
885.702332	86.178673	-9.7496
892.120483	86.168098	-10.4305
898.585144	86.093567	-11.1102
905.096680	85.997368	-11.7428
911.655396	85.911377	-12.2400
918.261597	85.825310	-12.6794
924.915710	85.744690	-13.1328
931.618042	85.653366	-13.5327
938.368896	85.519127	-13.7966
945.168762	85.395401	-14.0381
952.017822	85.354561	-14.3422
958.916504	85.309242	-14.7134
965.865234	85.187180	-15.2788
972.864319	85.012749	-15.7556
979.914062	84.754112	-15.8196
987.014954	84.508820	-15.7145
994.167236	84.416527	-15.5868
1001.371399	84.321449	-15.4137
1008.627747	84.082268	-15.3339
1015.936646	83.790298	-15.0082
1023.298584	83.474228	-14.0822
1030.713867	83.183846	-12.7311
1038.182739	82.985718	-10.9587
1045.705933	82.858391	-8.9360
1053.283447	82.798294	-6.7903
1060.916016	82.817734	-4.6569
1068.603882	82.943253	-2.6917
1076.347412	83.129150	-0.9625
1084.147095	83.337433	0.4102
1092.003296	83.570175	1.4282
1099.916382	83.838203	1.9841
1107.886841	84.078125	2.2871
1115.915039	84.191422	2.5151
1124.001343	84.292580	2.6566
1132.146362	84.488457	2.8364
1140.350342	84.707161	2.8217
1148.613770	84.931862	2.3114
1156.937134	85.101463	1.6290
1165.320801	85.108795	0.9737
1173.765137	85.074150	0.4260
1182.270752	85.093483	0.2190
1190.838013	85.136780	0.0935
1199.467285	85.220970	-0.1683
1208.159180	85.298752	-0.4658
1216.913940	85.310753	-0.7938
1225.732178	85.308998	-1.0791
1234.614380	85.324158	-1.1847
1243.560913	85.362785	-1.2954
1252.572266	85.464584	-1.5762
1261.648926	85.560677	-1.9553
1270.791382	85.576378	-2.4514
1280.000000	85.567055	-2.9551
1289.275391	85.567375	-3.3380
1298.618042	85.567001	-3.6736
1308.028320	85.567001	-3.9922
1317.506836	85.567009	-4.2987
1327.054077	85.567001	-4.5986
1336.670410	85.567009	-4.9207
1346.356567	85.577736	-5.3327
1356.112793	85.567108	-5.7247
1365.939697	85.486740	-6.0167
1375.837891	85.395355	-6.1836
1385.807739	85.341423	-6.1306
1395.849854	85.309082	-5.9866
1405.964844	85.303619	-5.8564
1416.152954	85.308975	-5.7225
1426.415039	85.308998	-5.6226
1436.751465	85.308998	-5.4937
1447.162720	85.299759	-5.2659
1457.649414	85.308907	-4.9951
1468.212158	85.364769	-4.6719
1478.851440	85.456581	-4.4237
1489.567871	85.591255	-4.3651
1500.361816	85.743393	-4.5279
1511.234131	85.896263	-5.0031
1522.185059	86.030464	-5.7252
1533.215454	86.128304	-6.7295
1544.325806	86.167976	-7.8033
1555.516602	86.100037	-8.7753
1566.788574	85.989510	-9.5533
1578.142090	85.880814	-9.9444
1589.578003	85.788330	-10.0809
1601.096680	85.734367	-9.9502
1612.698975	85.738831	-9.7974
1624.385254	85.858696	-9.8534
1636.156250	86.005371	-10.1520
1648.012451	86.107590	-10.8900
1659.954590	86.167877	-11.8085
1671.983398	86.150711	-12.7371
1684.099243	86.100235	-13.5987
1696.302856	86.036865	-14.1898
1708.594971	85.997093	-14.7205
1720.976196	86.042839	-15.2790
1733.447144	86.118637	-16.0341
1746.008423	86.207047	-17.2534
1758.660645	86.253944	-18.7314
1771.404663	86.183884	-20.4197
1784.240967	86.042702	-22.1053
1797.170288	85.827080	-23.4326
1810.193359	85.610779	-24.7775
1823.310791	85.564606	-26.6095
1836.523193	85.396149	-28.3051
1849.831421	84.723740	-29.4441
1863.236084	83.977173	-29.8680
1876.737793	83.537605	-29.1060
1890.337524	83.183464	-27.6753
1904.035645	82.768921	-25.9325
1917.833008	82.436058	-23.9075
1931.730469	82.313736	-21.6393
1945.728638	82.301880	-19.4490
1959.828125	82.352058	-17.7154
1974.029907	82.434624	-16.3093
1988.334473	82.505547	-15.2798
2002.742798	82.559830	-14.4631
2017.255493	82.567818	-13.7335
2031.873291	82.560043	-13.0229
2046.597168	82.549759	-12.1791
2061.427734	82.559875	-11.3287
2076.365479	82.630379	-10.5258
2091.411865	82.723602	-9.8406
2106.566895	82.818497	-9.3959
2121.832031	82.903679	-9.0891
2137.207764	82.952705	-8.8654
2152.694824	82.989861	-8.6996
2168.294189	83.032806	-8.5295
2184.006592	83.075798	-8.4114
2199.832764	83.124176	-8.3870
2215.773682	83.161888	-8.4396
2231.830078	83.178123	-8.6077
2248.002686	83.162155	-8.7675
2264.292725	83.087135	-8.8264
2280.700684	82.990433	-8.7278
2297.227539	82.893631	-8.3362
2313.874268	82.818237	-7.7964
2330.641602	82.807236	-7.1996
2347.530273	82.817940	-6.5767
2364.541504	82.812630	-5.9943
2381.676025	82.817932	-5.4355
2398.934570	82.855415	-4.8928
2416.318359	82.903778	-4.4041
2433.827881	82.952179	-4.0403
2451.464355	82.989876	-3.6964
2469.228760	82.986275	-3.2729
2487.121826	82.989929	-2.8220
2505.144531	83.055717	-2.3516
2523.297852	83.135635	-1.8970
2541.582764	83.184082	-1.4796
2560.000000	83.246651	-1.1482
2578.550781	83.378632	-0.9690
2597.236084	83.507469	-0.9130
2616.056641	83.561768	-1.0140
2635.013672	83.590904	-1.1495
2654.108154	83.620186	-1.1700
2673.340820	83.652832	-1.1849
2692.713135	83.711609	-1.2662
2712.225586	83.762810	-1.3794
2731.879395	83.769882	-1.5273
2751.675781	83.763046	-1.6684
2771.615479	83.763435	-1.7372
2791.699707	83.763016	-1.8066
2811.929688	83.771248	-1.9550
2832.305908	83.756149	-2.1044
2852.830078	83.688980	-2.2987
2873.502930	83.568649	-2.2490
2894.325439	83.334366	-1.5900
2915.298828	83.136673	-0.5883
2936.424316	83.161194	0.6592
2957.702881	83.246605	1.9980
2979.135742	83.259674	3.1941
3000.723633	83.294746	4.3887
3022.468262	83.408913	5.7310
3044.370117	83.585037	6.9717
3066.430908	83.843613	7.9032
3088.651611	84.127724	8.5428
3111.033203	84.386475	8.7739
3133.577148	84.620972	8.7952
3156.284180	84.794632	8.8028
3179.156006	84.970093	8.6948
3202.193359	85.225067	8.4493
3225.397949	85.479858	8.0176
3248.770508	85.674271	7.2700
3272.312500	85.824417	6.4268
3296.024902	85.907677	5.7031
3319.909180	85.981613	4.9913
3343.966797	86.121773	4.2593
3368.198486	86.253448	3.4897
3392.605713	86.313805	2.6017
3417.189941	86.339935	1.7546
3441.952393	86.340019	1.1129
3466.894287	86.339966	0.5871
3492.016846	86.377411	0.1591
3517.321289	86.425774	-0.2242
3542.809326	86.468803	-0.6371
3568.481934	86.511803	-1.0352
3594.340576	86.549431	-1.3779
3620.386719	86.597725	-1.7273
3646.621582	86.683571	-2.1423
3673.046387	86.769623	-2.5928
3699.662842	86.812874	-3.0654
3726.472168	86.855766	-3.5667
3753.475586	86.941101	-4.0931
3780.675049	87.026649	-4.6603
3808.071289	87.075127	-5.3021
3835.666016	87.112823	-5.9599
3863.460938	87.155792	-6.5773
3891.457275	87.198784	-7.1801
3919.656250	87.236427	-7.7495
3948.059814	87.284729	-8.3639
3976.668945	87.375938	-9.1166
4005.485596	87.456673	-9.9457
4034.510986	87.467766	-10.8496
4063.746582	87.457069	-11.7378
4093.194336	87.451637	-12.4725
4122.855469	87.456932	-13.1924
4152.730957	87.503197	-14.0082
4182.823730	87.542877	-14.8708
4213.133789	87.522957	-15.7843
4243.664062	87.488167	-16.6957
4274.415527	87.469131	-17.5110
4305.389648	87.457047	-18.3567
4336.588379	87.471100	-19.3774
4368.013184	87.457191	-20.4301
4399.665527	87.339966	-21.4222
4431.547363	87.200668	-22.3407
4463.660156	87.121155	-23.1498
4496.005371	87.027565	-23.8260
4528.585449	86.841522	-24.3300
4561.401367	86.654800	-24.6727
4594.455078	86.558205	-24.8272
4627.748535	86.480392	-24.8690
4661.283203	86.362076	-24.8773
4695.060547	86.254456	-24.8165
4729.083008	86.197075	-24.6406
4763.352051	86.168083	-24.4578
4797.869141	86.162613	-24.3705
4832.636719	86.167961	-24.3529
4867.655762	86.167999	-24.4215
4902.928711	86.168007	-24.5492
4938.457520	86.167999	-24.7128
4974.243652	86.168007	-24.9170
5010.289062	86.167999	-25.1495
5046.595703	86.167999	-25.4374
5083.165527	86.178665	-25.8409
5120.000000	86.168152	-26.2480
5157.101562	86.088333	-26.5760
5194.472168	85.997429	-26.7953
5232.113281	85.943535	-26.8105
5270.027344	85.911110	-26.7355
5308.216309	85.900253	-26.6443
5346.681641	85.910896	-26.5634
5385.426270	85.943100	-26.5219
5424.451172	85.996674	-26.5834
5463.758789	86.082054	-26.8300
5503.351562	86.167595	-27.2356
5543.230957	86.221466	-27.8301
5583.399414	86.253891	-28.5254
5623.859375	86.259384	-29.2227
5664.611816	86.254036	-29.9800
5705.660156	86.271652	-30.8701
5747.005859	86.254242	-31.7537
5788.650879	86.125015	-32.5310
5830.597656	85.971771	-33.1523
5872.848633	85.867920	-33.4834
5915.405762	85.783386	-33.6772
5958.271484	85.711960	-33.8455
6001.447266	85.653275	-33.9843
6044.936523	85.604836	-34.1161
6088.740234	85.567162	-34.2711
6132.861816	85.547722	-34.5045
6177.303223	85.523163	-34.7637
6222.066406	85.461952	-35.0217
6267.154297	85.395317	-35.2539
6312.568359	85.347084	-35.4012
6358.312012	85.309166	-35.5392
6404.386719	85.288605	-35.7461
6450.795898	85.263176	-35.9579
6497.541016	85.198029	-36.1232
6544.625000	85.137253	-36.2802
6592.049805	85.130936	-36.4469
6639.818359	85.128044	-36.6360
6687.933594	85.081024	-36.8776
6736.396973	85.027260	-37.1366
6785.211426	85.000397	-37.3947
6834.379883	84.966225	-37.6309
6883.904785	84.888199	-37.8278
6933.788574	84.805412	-37.9575
6984.033691	84.746696	-37.9449
7034.642578	84.708130	-37.9131
7085.618652	84.707291	-37.9736
7136.963867	84.708038	-38.0892
7188.681152	84.671791	-38.2821
7240.773438	84.622276	-38.4830
7293.243164	84.573708	-38.6375
7346.092773	84.517319	-38.7217
7399.325684	84.436592	-38.6731
7452.944336	84.368271	-38.5547
7506.951172	84.356682	-38.3903
7561.350098	84.363945	-38.2386
7616.142578	84.363747	-38.1874
7671.332031	84.363998	-38.1760
7726.921875	84.358635	-38.1461
7782.914551	84.363914	-38.1746
7839.312500	84.412117	-38.3417
7896.119629	84.449883	-38.5815
7953.337891	84.417992	-38.8831
8010.971191	84.364304	-39.1608
8069.021973	84.321228	-39.3068
8127.493164	84.278229	-39.3748
8186.388672	84.235168	-39.3937
8245.710938	84.192230	-39.3336
8305.461914	84.144241	-39.1699
8365.647461	84.107147	-38.9146
8426.267578	84.092133	-38.5347
8487.328125	84.108810	-38.1400
8548.831055	84.182419	-37.8267
8610.779297	84.277481	-37.6049
8673.176758	84.357979	-37.5077
8736.026367	84.449455	-37.5602
8799.331055	84.589020	-37.8539
8863.094727	84.707512	-38.2250
8927.320312	84.702690	-38.5037
8992.010742	84.707809	-38.7943
9057.170898	84.862984	-39.0741
9122.802734	85.051018	-39.5596
9188.910156	85.201286	-40.5384
9255.497070	85.308563	-41.7817
9322.566406	85.345177	-43.2283
9390.121094	85.309395	-44.6539
9458.166016	85.163017	-45.7957
9526.704102	84.987907	-46.7048
9595.738281	84.876190	-47.3425
9665.273438	84.761673	-47.7216
9735.311523	84.576935	-47.8219
9805.857422	84.413750	-47.7052
9876.915039	84.370293	-47.4067
9948.487305	84.363998	-46.9875
10020.578125	84.316940	-46.5164
10093.191406	84.308846	-46.0059
10166.331055	84.405373	-45.4053
10240.000000	84.574890	-44.9706
10314.203125	84.818138	-44.9113
10388.944336	85.101555	-45.3226
10464.226562	85.416603	-46.4318
10540.054688	85.688606	-48.0488
10616.432617	85.831696	-50.1785
10693.363281	85.869095	-52.4615
10770.852539	85.764214	-54.4908
10848.902344	85.612831	-56.4030
10927.517578	85.544563	-58.2479
11006.703125	85.424911	-59.8908
11086.461914	85.103683	-61.2390
11166.798828	84.750877	-62.2108
11247.718750	84.508217	-62.5740
11329.223633	84.317863	-62.6867
11411.320312	84.187271	-62.8978
11494.011719	84.057777	-63.0187
11577.301758	83.840851	-62.9819
11661.195312	83.632042	-62.7618
11745.697266	83.511253	-62.2473
11830.811523	83.441254	-61.6274
11916.542969	83.412804	-61.0620
12002.894531	83.418884	-60.5348
12089.873047	83.445892	-60.0730
12177.480469	83.504562	-59.7018
12265.723633	83.601357	-59.4211
12354.606445	83.736153	-59.3348
12444.132812	83.919868	-59.5225
12534.308594	84.125862	-60.0580
12625.136719	84.344818	-61.0822
12716.624023	84.535133	-62.4758
12808.773438	84.645195	-64.2123
12901.591797	84.694893	-66.1487
12995.082031	84.684753	-68.1390
13089.250000	84.622429	-70.1638
13184.099609	84.520699	-72.1827
13279.636719	84.364975	-74.1151
13375.867188	84.132179	-75.8702
13472.793945	83.859657	-77.4395
13570.422852	83.591080	-78.8066
13668.759766	83.286011	-79.9062
13767.809570	82.904358	-80.7303
13867.577148	82.486557	-81.0906
13968.067383	82.029732	-80.7065
14069.285156	81.625069	-79.8402
14171.237305	81.395653	-78.6094
14273.927734	81.245674	-77.1770
14377.362305	81.101135	-75.7523
14481.546875	81.014275	-74.3146
14586.486328	81.020813	-72.8464
14692.185547	81.099342	-71.5419
14798.651367	81.262009	-70.6359
14905.888672	81.442993	-69.9940
15013.902344	81.555756	-69.5856
15122.700195	81.672264	-69.3262
15232.285156	81.835640	-69.0329
15342.664062	82.049515	-68.9694
15453.843750	82.361000	-69.3588
15565.829102	82.682327	-70.1516
15678.625000	82.918999	-71.3911
15792.239258	83.134850	-73.0132
15906.675781	83.377403	-74.9193
16021.942383	83.604851	-77.2540
16138.043945	83.802864	-80.1254
16254.986328	83.934494	-83.5504
16372.777344	84.027580	-87.9537
16491.421875	83.873817	-92.2251
16610.923828	83.058258	-95.1585
16731.294922	82.220184	-97.4254
16852.535156	82.115326	-99.2799
16974.656250	82.007423	-100.8075
17097.662109	81.216293	-102.4971
17221.558594	80.290527	-103.3903
17346.353516	79.568024	-102.2624
17472.052734	79.032532	-100.3586
17598.662109	78.854927	-98.5140
17726.189453	78.803192	-96.7952
17854.640625	78.665695	-95.6334
17984.021484	78.542618	-94.7494
18114.341797	78.483215	-93.9836
18245.605469	78.436279	-93.3920
18377.820312	78.363358	-93.0267
18510.994141	78.272606	-92.7456
18645.132812	78.150291	-92.4204
18780.242188	78.024673	-92.0562
18916.332031	77.922470	-91.6041
19053.408203	77.835457	-91.1010
19191.476562	77.752136	-90.5082
19330.546875	77.708084	-90.0043
19470.623047	77.772446	-89.7870
19611.714844	77.834778	-89.7666
19753.830078	77.778221	-89.9763
19896.974609	77.686592	-90.2405
