* Measurement data measured by REW V5.20 Beta 53
* Source: C:\Users\Napie\Music\REW\Top Speakers\New Folder\11-ER.txt
* Format: Comma/Tab/Space delimited data
* Dated: May 26, 2020 3:21:04 PM
* REW Settings:
*  C-weighting compensation: Off
*  Target level: 75.0 dB
* Note: ; Measurement imported from C:\Users\Napie\Music\REW\Top Speakers\New Folder\11-ER.txt Format: Comma/Tab/Space delimited data 623 values loaded, 5 Hz to 39,792 Hz log spaced 
* Measurement: 11-ER
* Smoothing: None
* Frequency Step: 1/96 octave
* Start Frequency: 20.000 Hz
*
* Freq(Hz)	SPL(dB)	Phase(degrees)
20.000000	61.305824	-149.0866
20.144928	61.487396	-149.5296
20.290907	61.668835	-149.9916
20.437943	61.854115	-150.4983
20.586044	62.030880	-150.9937
20.735220	62.172749	-151.3986
20.885475	62.325806	-151.8075
21.036821	62.552216	-152.2971
21.189262	62.777737	-152.8423
21.342808	62.926327	-153.4507
21.497467	63.064819	-154.1012
21.653246	63.257938	-154.7815
21.810154	63.436790	-155.4721
21.968201	63.535336	-156.1834
22.127390	63.608929	-156.8124
22.287735	63.694675	-157.2403
22.449242	63.781933	-157.5238
22.611917	63.865601	-157.6611
22.775772	63.965858	-157.7100
22.940815	64.110550	-157.7109
23.107054	64.271790	-157.7150
23.274498	64.436905	-157.8337
23.443153	64.587814	-157.9269
23.613033	64.689774	-157.9389
23.784142	64.779915	-157.7273
23.956491	64.850777	-156.9968
24.130091	65.001762	-156.1510
24.304947	65.396584	-155.5228
24.481071	65.835442	-155.0316
24.658470	66.087067	-154.5986
24.837156	66.407440	-154.5487
25.017136	67.116730	-155.2658
25.198421	67.794403	-156.4965
25.381020	67.995201	-158.2229
25.564941	68.108879	-160.1182
25.750195	68.462296	-161.7546
25.936790	68.802628	-163.4169
26.124741	68.942055	-165.3598
26.314051	69.009933	-167.2474
26.504732	69.081169	-168.7953
26.696796	69.132950	-170.0996
26.890253	69.155289	-171.1405
27.085112	69.183952	-171.9831
27.281382	69.266632	-172.6914
27.479073	69.357887	-173.2484
27.678198	69.404869	-173.6396
27.878765	69.476860	-173.9207
28.080786	69.642731	-174.0942
28.284271	69.851685	-174.3046
28.489231	70.074242	-174.6993
28.695675	70.314659	-175.2731
28.903616	70.578941	-176.0948
29.113064	70.832657	-177.0885
29.324028	71.029266	-178.2017
29.536524	71.210785	-179.4325
29.750557	71.422203	179.2262
29.966141	71.608818	177.8116
30.183289	71.715714	176.3347
30.402010	71.787926	174.8808
30.622314	71.861725	173.5173
30.844217	71.908958	172.3104
31.067726	71.883339	171.4050
31.292856	71.874969	170.6311
31.519617	72.002678	169.8569
31.748020	72.134872	169.1119
31.978081	72.139328	168.3497
32.209808	72.134987	167.6678
32.443211	72.214005	167.2231
32.678310	72.325829	166.7916
32.915108	72.461571	166.1521
33.153625	72.587860	165.4519
33.393871	72.648422	164.7621
33.635857	72.702904	164.0920
33.879597	72.805214	163.5033
34.125103	72.916855	162.9098
34.372387	73.017616	162.2138
34.621464	73.105873	161.5110
34.872345	73.165359	160.8617
35.125042	73.219933	160.2767
35.379574	73.286232	159.8234
35.635948	73.369888	159.3925
35.894180	73.496010	158.8812
36.154285	73.622826	158.3368
36.416275	73.701881	157.7657
36.680161	73.777878	157.1899
36.945961	73.888268	156.6580
37.213688	74.006828	156.0969
37.483353	74.123955	155.4143
37.754974	74.226860	154.7161
38.028561	74.282990	154.0972
38.304131	74.341911	153.4988
38.581699	74.460510	152.9066
38.861279	74.584824	152.2800
39.142883	74.671265	151.5522
39.426529	74.744911	150.7880
39.712231	74.819084	150.0456
40.000000	74.885902	149.2792
40.289856	74.955299	148.3998
40.581814	74.987000	147.5950
40.875885	74.912941	147.0161
41.172089	74.826111	146.6843
41.470440	74.805115	146.7349
41.770950	74.825928	146.9765
42.073643	74.885437	147.3181
42.378525	74.998795	147.5917
42.685616	75.213875	147.5560
42.994934	75.429726	147.3404
43.306492	75.529572	146.9552
43.620308	75.607872	146.5187
43.936401	75.733536	146.1903
44.254780	75.867783	145.8575
44.575470	75.989861	145.4601
44.898483	76.113800	144.9988
45.223835	76.255791	144.4496
45.551544	76.388824	143.8279
45.881630	76.487694	143.1200
46.214108	76.562904	142.3891
46.548996	76.622185	141.6559
46.886307	76.648987	141.0358
47.226067	76.611458	140.6328
47.568283	76.563080	140.5029
47.912983	76.531265	140.8475
48.260181	76.562866	141.3351
48.609894	76.755646	141.7034
48.962143	76.984657	141.9427
49.316940	77.131714	141.9156
49.674313	77.272766	141.7463
50.034271	77.463326	141.5170
50.396843	77.647751	141.2175
50.762039	77.778687	140.8129
51.129883	77.885834	140.4585
51.500389	77.963028	140.3741
51.873581	78.070763	140.3321
52.249481	78.307068	140.1681
52.628101	78.553619	139.9095
53.009464	78.693542	139.4949
53.393593	78.818771	139.0278
53.780506	79.004433	138.5958
54.170223	79.185722	138.1857
54.562763	79.308937	137.7356
54.958145	79.414841	137.4781
55.356396	79.465347	137.8934
55.757530	79.643524	138.1809
56.161572	80.276207	137.5923
56.568542	80.896149	136.4424
56.978462	81.014885	134.6078
57.391350	81.017006	132.6595
57.807232	81.176750	131.2666
58.226128	81.342735	130.0151
58.648056	81.439362	128.6441
59.073048	81.509903	127.3550
59.501114	81.557663	126.3334
59.932281	81.627838	125.3698
60.366577	81.796928	124.3271
60.804020	81.974716	123.1711
61.244629	82.086784	121.7571
61.688435	82.160904	120.2795
62.135452	82.194595	118.8859
62.585712	82.205002	117.5751
63.039234	82.207756	116.4075
63.496040	82.205009	115.3456
63.956161	82.205002	114.3773
64.419617	82.205002	113.4875
64.886421	82.205002	112.6564
65.356621	82.205009	111.8863
65.830215	82.205002	111.1725
66.307251	82.205002	110.5162
66.787743	82.205002	109.9137
67.271713	82.205002	109.3749
67.759193	82.205002	108.8935
68.250206	82.205002	108.5146
68.744774	82.189758	108.3271
69.242928	82.204933	108.1932
69.744690	82.314896	108.0215
70.250084	82.448738	107.7596
70.759148	82.548195	107.2918
71.271896	82.638840	106.7171
71.788361	82.733208	106.0785
72.308571	82.812866	105.4302
72.832550	82.847198	104.8587
73.360321	82.884911	104.3110
73.891922	82.980301	103.7895
74.427376	83.086800	103.2142
74.966705	83.179474	102.4481
75.509949	83.246910	101.6644
76.057121	83.246208	101.0202
76.608261	83.246971	100.4291
77.163399	83.333313	99.8496
77.722557	83.419846	99.3020
78.285767	83.415825	98.8090
78.853058	83.419945	98.3230
79.424461	83.538002	97.8095
80.000000	83.659805	97.2521
80.579712	83.684059	96.5802
81.163628	83.687996	95.9222
81.751770	83.725227	95.4044
82.344177	83.766914	94.9639
82.940880	83.790573	94.5991
83.541901	83.829895	94.2497
84.147285	83.925865	93.8733
84.757050	84.034798	93.4140
85.371231	84.130646	92.7444
85.989868	84.200882	92.0354
86.612984	84.205887	91.4144
87.240616	84.200996	90.8869
87.872803	84.234230	90.5419
88.509560	84.288864	90.2556
89.150940	84.365334	89.9487
89.796967	84.459785	89.5749
90.447670	84.579124	89.0421
91.103088	84.691795	88.4094
91.763260	84.761757	87.6707
92.428215	84.808922	86.9305
93.097992	84.833519	86.3139
93.772614	84.858940	85.7521
94.452133	84.920242	85.2147
95.136566	84.982880	84.7100
95.825966	85.011261	84.2331
96.520363	85.042915	83.7939
97.219788	85.108162	83.4349
97.924286	85.193810	83.0539
98.633881	85.305092	82.5452
99.348625	85.416786	81.9593
100.068542	85.495705	81.3096
100.793686	85.570808	80.6028
101.524078	85.668564	79.8583
102.259766	85.763779	79.0501
103.000778	85.839851	78.1337
103.747162	85.896912	77.1829
104.498962	85.925781	76.2461
105.256203	85.937996	75.3546
106.018929	85.940567	74.5544
106.787186	85.938011	73.8492
107.561012	85.927200	73.3042
108.340446	85.937958	72.7809
109.125526	86.024338	72.1497
109.916290	86.110878	71.4483
110.712791	86.121819	70.6329
111.515060	86.111031	69.8186
112.323143	86.111000	69.1284
113.137085	86.111000	68.4962
113.956924	86.111000	67.8944
114.782700	86.111000	67.3284
115.614464	86.111000	66.7921
116.452255	86.111000	66.2928
117.296112	86.111000	65.8231
118.146095	86.111000	65.4217
119.002228	86.094696	65.1876
119.864563	86.110886	64.9348
120.733154	86.241173	64.4901
121.608040	86.371765	63.9114
122.489258	86.388329	63.1404
123.376869	86.372055	62.3548
124.270905	86.371880	61.7389
125.171425	86.372002	61.2169
126.078468	86.362320	60.8122
126.992081	86.373932	60.4079
127.912323	86.459427	59.8819
128.839233	86.544853	59.2723
129.772842	86.555695	58.5403
130.713242	86.545029	57.7964
131.660431	86.544998	57.1613
132.614502	86.544998	56.5676
133.575485	86.544998	55.9874
134.543427	86.544998	55.4221
135.518387	86.544998	54.8672
136.500412	86.544998	54.3120
137.489548	86.547806	53.7399
138.485855	86.545021	53.1634
139.489380	86.530548	52.5617
140.500168	86.500092	52.0190
141.518295	86.433350	51.6308
142.543793	86.372124	51.3436
143.576721	86.363998	51.1508
144.617142	86.371986	51.0073
145.665100	86.363693	50.8779
146.720642	86.371941	50.7255
147.783844	86.435806	50.4956
148.854752	86.504837	50.2039
149.933411	86.526825	49.8358
151.019897	86.544945	49.4280
152.114243	86.594429	49.0289
153.216522	86.647865	48.5903
154.326797	86.689842	48.0452
155.445114	86.718948	47.4972
156.571533	86.707207	47.0975
157.706116	86.718918	46.6382
158.848923	86.859474	45.9130
160.000000	86.978798	45.0641
161.159424	86.913292	44.1079
162.327255	86.806244	43.2188
163.503540	86.761879	42.6591
164.688354	86.737053	42.1840
165.881760	86.734581	41.5877
167.083801	86.719086	41.0105
168.294571	86.631111	40.5432
169.514099	86.545174	40.1309
170.742462	86.544914	39.7414
171.979736	86.545036	39.3958
173.225967	86.453362	39.1242
174.481232	86.372124	38.8696
175.745605	86.409447	38.6113
177.019119	86.457909	38.2690
178.301880	86.436790	37.6637
179.593933	86.372231	37.0684
180.895340	86.241898	36.7395
182.206177	86.111275	36.5523
183.526520	86.067513	36.4529
184.856430	86.024132	36.4808
186.195984	85.888885	36.6513
187.545227	85.764244	36.9840
188.904266	85.735245	37.5922
190.273132	85.763863	38.2106
191.651932	85.856529	38.5851
193.040726	85.963715	38.7917
194.439575	86.031837	38.7645
195.848572	86.078903	38.6772
197.267761	86.085846	38.7358
198.697250	86.110886	38.7810
200.137085	86.236809	38.7276
201.587372	86.371712	38.5546
203.048157	86.434746	38.1645
204.519531	86.473900	37.7024
206.001556	86.513283	37.2891
207.494324	86.544937	36.9009
208.997925	86.561028	36.5783
210.512405	86.584915	36.2469
212.037857	86.654327	35.8352
213.574371	86.718864	35.3732
215.122025	86.727386	34.8429
216.680893	86.719025	34.3174
218.251053	86.719002	33.8812
219.832581	86.719002	33.4831
221.425583	86.719002	33.0992
223.030121	86.719002	32.7309
224.646286	86.719002	32.3732
226.274170	86.719002	32.0229
227.913849	86.719002	31.6765
229.565399	86.719002	31.3308
231.228928	86.719002	30.9862
232.904510	86.719002	30.6281
234.592224	86.724434	30.2223
236.292191	86.719040	29.8280
238.004456	86.675621	29.5032
239.729126	86.632111	29.2187
241.466309	86.630684	28.9689
243.216080	86.632011	28.7396
244.978516	86.600410	28.5033
246.753738	86.566086	28.2935
248.541809	86.551399	28.1518
250.342850	86.545006	28.0284
252.156937	86.543686	27.8833
253.984161	86.544991	27.7274
255.824646	86.544998	27.5560
257.678467	86.544998	27.3765
259.545685	86.544998	27.1945
261.426483	86.544998	27.0095
263.320862	86.544998	26.8229
265.229004	86.544998	26.6345
267.150970	86.544998	26.4445
269.086853	86.544998	26.2526
271.036774	86.544998	26.0590
273.000824	86.544998	25.8625
274.979095	86.544998	25.6636
276.971710	86.544998	25.4586
278.978760	86.544998	25.2499
281.000336	86.544998	25.0216
283.036591	86.550430	24.7424
285.087585	86.545044	24.4618
287.153442	86.507019	24.2053
289.234283	86.458145	24.0154
291.330200	86.409683	23.9711
293.441284	86.372086	23.9889
295.567688	86.372055	23.9917
297.709503	86.372025	24.0388
299.866821	86.323204	24.1693
302.039795	86.285065	24.3683
304.228485	86.312119	24.6738
306.433044	86.371803	24.9663
308.653595	86.446327	25.1553
310.890228	86.544685	25.1882
313.143066	86.684662	24.9783
315.412231	86.822639	24.5376
317.697845	86.922699	23.7897
320.000000	86.978912	22.9126
322.318848	86.960426	22.0461
324.654510	86.906204	21.2303
327.007080	86.848824	20.5633
329.376709	86.777245	20.0115
331.763519	86.687302	19.5760
334.167603	86.590302	19.2498
336.589142	86.504456	18.9944
339.028198	86.405319	18.9050
341.484924	86.246887	19.1021
343.959473	86.111298	19.4738
346.451935	86.092606	19.9827
348.962463	86.110931	20.5226
351.491211	86.105568	20.9476
354.038239	86.110962	21.3389
356.603760	86.144501	21.7445
359.187866	86.197807	22.1209
361.790680	86.260025	22.4876
364.412354	86.355675	22.7028
367.053040	86.531212	22.6331
369.712860	86.710487	22.2706
372.391968	86.828217	21.5119
375.090454	86.896881	20.5111
377.808533	86.922729	19.2891
380.546265	86.860344	18.1450
383.303864	86.617599	17.3965
386.081451	86.339767	17.0125
388.879150	86.171638	17.1269
391.697144	86.025436	17.5593
394.535522	85.853577	18.1009
397.394501	85.677513	18.9679
400.274170	85.477051	20.3397
403.174744	85.330322	22.1237
406.096313	85.303459	24.4092
409.039062	85.413406	26.8286
412.003113	85.693077	29.2784
414.988647	86.160164	31.0519
417.995850	86.959587	31.3010
421.024811	87.743782	30.3360
424.075714	88.167900	27.8508
427.148743	88.361740	24.8585
430.244049	88.301064	22.2594
433.361786	88.108727	20.1019
436.502106	87.886711	18.8459
439.665161	87.674591	18.1475
442.851166	87.560143	17.8857
446.060242	87.500107	17.8420
449.292572	87.489113	17.7424
452.548340	87.499954	17.6304
455.827698	87.500000	17.4358
459.130798	87.500000	17.2296
462.457855	87.493629	17.0829
465.809021	87.499947	16.9276
469.184448	87.546333	16.7292
472.584381	87.601830	16.4559
476.008911	87.644257	16.0391
479.458252	87.673935	15.5546
482.932617	87.679253	15.0593
486.432159	87.674026	14.5447
489.957031	87.678123	13.9924
493.507477	87.662094	13.4884
497.083618	87.580528	13.1282
500.685699	87.500221	12.8667
504.313873	87.489868	12.7275
507.968323	87.499962	12.5985
511.649292	87.502251	12.3517
515.356934	87.500023	12.0560
519.091370	87.489235	11.7161
522.852966	87.464104	11.3979
526.641724	87.405899	11.1808
530.458008	87.349159	11.0314
534.301941	87.330353	10.9651
538.173706	87.325996	10.9132
542.073547	87.324554	10.8033
546.001648	87.325989	10.6605
549.958191	87.325996	10.4860
553.943420	87.326004	10.2797
557.957520	87.325996	10.0491
562.000671	87.325996	9.7730
566.073181	87.329552	9.4341
570.175171	87.326019	9.0284
574.306885	87.310081	8.5255
578.468567	87.269188	7.9889
582.660400	87.187653	7.4379
586.882568	87.069466	6.9763
591.135376	86.905159	6.7075
595.419006	86.719643	6.6538
599.733643	86.532700	6.8999
604.079590	86.350624	7.3611
608.456970	86.208267	7.8973
612.866089	86.039665	8.7564
617.307190	85.752121	10.0298
621.780457	85.458916	12.0498
626.286133	85.155067	15.5568
630.824463	85.104538	19.4244
635.395691	85.717171	22.9280
640.000000	86.554993	25.5800
644.637695	87.263977	26.5662
649.309021	87.990448	26.1429
654.014160	88.869217	24.1201
658.753418	89.589073	21.0338
663.527039	89.799484	17.0713
668.335205	89.745522	13.0947
673.178284	89.525604	10.1597
678.056396	89.236977	7.8826
682.969849	89.032593	6.3077
687.918945	88.843643	5.1882
692.903870	88.652222	4.2451
697.924927	88.455688	3.6166
702.982422	88.219978	3.4097
708.076477	88.021584	3.4456
713.207520	87.961380	3.5896
718.375732	87.934105	3.8112
723.581360	87.839447	4.0092
728.824707	87.760208	4.2610
734.106079	87.749252	4.7147
739.425720	87.798714	5.0602
744.783936	87.955353	4.9963
750.180908	88.107552	4.6368
755.617065	88.148247	3.8442
761.092529	88.108299	3.0753
766.607727	87.928986	2.8515
772.162903	87.773384	2.8508
777.758301	87.845863	2.9926
783.394287	87.967590	3.0621
789.071045	88.006607	2.7334
794.789001	88.020988	2.2578
800.548340	88.028130	1.7947
806.349487	88.021057	1.3027
812.192627	88.006721	0.7418
818.078125	87.960236	0.2644
824.006226	87.829422	0.0344
829.977295	87.702377	-0.0191
835.991699	87.671913	0.1321
842.049622	87.673973	0.3512
848.151428	87.668816	0.4840
854.297485	87.673965	0.6075
860.488098	87.689095	0.7716
866.723572	87.728798	0.9066
873.004211	87.802956	1.0534
879.330322	87.925453	0.9292
885.702332	88.171394	0.1696
892.120483	88.367508	-0.9456
898.585144	88.321159	-2.4143
905.096680	88.161736	-3.7587
911.655396	87.928520	-4.3927
918.261597	87.703728	-4.6307
924.915710	87.610229	-4.5288
931.618042	87.566116	-4.2889
938.368896	87.524567	-4.1494
945.168762	87.500061	-4.0592
952.017822	87.501305	-4.0629
958.916504	87.500023	-4.1088
965.865234	87.462112	-4.1876
972.864319	87.413193	-4.2170
979.914062	87.358795	-4.0697
987.014954	87.326050	-3.8707
994.167236	87.358452	-3.6818
1001.371399	87.412796	-3.5692
1008.627747	87.461754	-3.6536
1015.936646	87.499878	-3.8331
1023.298584	87.510864	-4.0821
1030.713867	87.500069	-4.2895
1038.182739	87.451241	-4.3177
1045.705933	87.413094	-4.2197
1053.283447	87.429199	-3.9227
1060.916016	87.499573	-3.6658
1068.603882	87.656494	-3.6331
1076.347412	87.846199	-3.9220
1084.147095	88.041946	-4.7662
1092.003296	88.193619	-5.9417
1099.916382	88.226974	-7.3683
1107.886841	88.187294	-8.8391
1115.915039	88.084846	-10.0927
1124.001343	87.951500	-11.2102
1132.146362	87.833900	-12.1734
1140.350342	87.698570	-13.0249
1148.613770	87.533440	-13.8751
1156.937134	87.320023	-14.5031
1165.320801	87.005127	-14.7061
1173.765137	86.680374	-14.5336
1182.270752	86.463356	-14.1002
1190.838013	86.226105	-13.0132
1199.467285	85.730927	-10.6650
1208.159180	85.418510	-7.8038
1216.913940	85.789711	-4.6248
1225.732178	86.439354	-2.1974
1234.614380	87.162033	-1.8984
1243.560913	87.844673	-3.0164
1252.572266	88.301361	-5.5424
1261.648926	88.547462	-8.7194
1270.791382	88.492470	-11.8646
1280.000000	88.270103	-14.7396
1289.275391	87.966194	-16.7586
1298.618042	87.637337	-18.2865
1308.028320	87.412155	-19.5431
1317.506836	87.160240	-20.3914
1327.054077	86.726517	-20.7352
1336.670410	86.308456	-20.6631
1346.356567	86.103851	-20.1384
1356.112793	85.963478	-19.4436
1365.939697	85.793671	-18.9438
1375.837891	85.619736	-18.3607
1385.807739	85.410309	-17.4634
1395.849854	85.243500	-16.4640
1405.964844	85.229515	-15.5038
1416.152954	85.242981	-14.5724
1426.415039	85.158203	-13.7300
1436.751465	85.082207	-12.9032
1447.162720	85.103333	-11.9951
1457.649414	85.155769	-11.1343
1468.212158	85.198509	-10.4635
1478.851440	85.242821	-9.8474
1489.567871	85.268669	-9.1428
1500.361816	85.329643	-8.5103
1511.234131	85.493942	-7.9958
1522.185059	85.699028	-7.8038
1533.215454	85.931847	-8.2604
1544.325806	86.110420	-9.0510
1555.516602	86.115425	-10.0405
1566.788574	86.044403	-11.0052
1578.142090	85.954613	-11.6307
1589.578003	85.851433	-12.0516
1601.096680	85.757736	-12.2612
1612.698975	85.677299	-12.3756
1624.385254	85.638725	-12.5382
1636.156250	85.590286	-12.6626
1648.012451	85.469467	-12.7257
1659.954590	85.335487	-12.6765
1671.983398	85.241669	-12.4749
1684.099243	85.145432	-12.0652
1696.302856	84.982971	-11.3129
1708.594971	84.869293	-10.4122
1720.976196	84.937752	-9.4335
1733.447144	85.073334	-8.6179
1746.008423	85.208801	-8.3087
1758.660645	85.329567	-8.2756
1771.404663	85.389336	-8.4346
1784.240967	85.416939	-8.6820
1797.170288	85.422447	-8.8708
1810.193359	85.417030	-9.0483
1823.310791	85.420372	-9.2108
1836.523193	85.417038	-9.3664
1849.831421	85.397614	-9.5453
1863.236084	85.363182	-9.6786
1876.737793	85.301285	-9.6866
1890.337524	85.243210	-9.6284
1904.035645	85.230835	-9.5444
1917.833008	85.221069	-9.4127
1931.730469	85.162239	-9.1959
1945.728638	85.120102	-8.9789
1959.828125	85.171036	-8.8118
1974.029907	85.233772	-8.7628
1988.334473	85.251633	-9.0067
2002.742798	85.224228	-9.2761
2017.255493	85.109589	-9.3619
2031.873291	84.976509	-9.2559
2046.597168	84.884071	-8.8260
2061.427734	84.821213	-8.2378
2076.365479	84.802574	-7.6175
2091.411865	84.808937	-6.9558
2106.566895	84.809677	-6.2249
2121.832031	84.852684	-5.6041
2137.207764	85.020584	-5.3116
2152.694824	85.180489	-5.2091
2168.294189	85.183662	-5.2803
2184.006592	85.156105	-5.3727
2199.832764	85.189240	-5.2546
2215.773682	85.242744	-5.1443
2231.830078	85.313766	-5.2013
2248.002686	85.378761	-5.3790
2264.292725	85.417282	-5.7392
2280.700684	85.417107	-6.1135
2297.227539	85.339890	-6.3528
2313.874268	85.243401	-6.4569
2330.641602	85.184479	-6.3644
2347.530273	85.129250	-6.1134
2364.541504	85.049217	-5.7222
2381.676025	84.983238	-5.1907
2398.934570	84.957634	-4.4418
2416.318359	84.982758	-3.7249
2433.827881	85.117638	-3.3308
2451.464355	85.242599	-3.0649
2469.228760	85.212219	-2.8719
2487.121826	85.159172	-2.6165
2505.144531	85.179306	-2.0425
2523.297852	85.242607	-1.4535
2541.582764	85.372246	-1.1031
2560.000000	85.502480	-0.8937
2578.550781	85.561996	-0.8715
2597.236084	85.588928	-0.8523
2616.056641	85.589447	-0.6473
2635.013672	85.589958	-0.3127
2654.108154	85.622513	0.1776
2673.340820	85.676720	0.7603
2692.713135	85.751289	1.3831
2712.225586	85.850456	2.0378
2731.879395	85.974388	2.7208
2751.675781	86.134148	3.3671
2771.615479	86.342949	3.9435
2791.699707	86.594780	4.3497
2811.929688	86.892113	4.5076
2832.305908	87.222382	4.3168
2852.830078	87.591309	3.6323
2873.502930	87.946533	2.5079
2894.325439	88.239830	0.8702
2915.298828	88.463158	-1.0398
2936.424316	88.572456	-3.0070
2957.702881	88.627823	-5.0211
2979.135742	88.689857	-6.9902
3000.723633	88.714996	-8.9485
3022.468262	88.675735	-10.9509
3044.370117	88.582550	-12.8456
3066.430908	88.414818	-14.4293
3088.651611	88.238739	-15.9055
3111.033203	88.167625	-17.4802
3133.577148	88.041870	-18.9514
3156.284180	87.691559	-20.3206
3179.156006	87.255180	-21.1766
3202.193359	86.784096	-20.9591
3225.397949	86.375656	-20.1093
3248.770508	86.182373	-18.7997
3272.312500	86.091255	-17.2938
3296.024902	86.031723	-15.9441
3319.909180	86.023918	-14.6578
3343.966797	86.065750	-13.4387
3368.198486	86.155464	-12.3429
3392.605713	86.285522	-11.3610
3417.189941	86.471001	-10.6931
3441.952393	86.764069	-10.5760
3466.894287	87.046860	-10.8956
3492.016846	87.200294	-11.7207
3517.321289	87.276817	-12.7333
3542.809326	87.283775	-13.6541
3568.481934	87.240288	-14.4290
3594.340576	87.154808	-14.8869
3620.386719	87.066376	-15.1025
3646.621582	87.022087	-15.0588
3673.046387	87.007004	-14.8632
3699.662842	87.021797	-14.6139
3726.472168	87.065727	-14.3244
3753.475586	87.136551	-14.0386
3780.675049	87.239456	-13.7612
3808.071289	87.358040	-13.3911
3835.666016	87.554810	-13.2875
3863.460938	87.946953	-13.7661
3891.457275	88.356133	-14.8640
3919.656250	88.634476	-16.8839
3948.059814	88.801514	-19.3397
3976.668945	88.807304	-21.8644
4005.485596	88.715637	-24.3885
4034.510986	88.590744	-26.7604
4063.746582	88.383255	-28.8666
4093.194336	88.038033	-30.5870
4122.855469	87.634102	-31.7905
4152.730957	87.226669	-32.2698
4182.823730	86.834785	-32.1301
4213.133789	86.477028	-31.3097
4243.664062	86.208977	-30.1073
4274.415527	86.119591	-28.7285
4305.389648	86.128784	-27.3961
4336.588379	86.193100	-26.4405
4368.013184	86.288528	-25.7457
4399.665527	86.371346	-25.3174
4431.547363	86.457573	-25.1125
4463.660156	86.557518	-25.1066
4496.005371	86.645622	-25.2490
4528.585449	86.694077	-25.5187
4561.401367	86.718933	-25.8028
4594.455078	86.712090	-25.9353
4627.748535	86.718880	-26.0514
4661.283203	86.805763	-26.2244
4695.060547	86.902557	-26.4795
4729.083008	86.952316	-26.9319
4763.352051	86.978928	-27.3840
4797.869141	86.961105	-27.5916
4832.636719	86.978722	-27.8027
4867.655762	87.145233	-28.1505
4902.928711	87.341080	-28.7463
4938.457520	87.472206	-29.7993
4974.243652	87.570610	-31.1500
5010.289062	87.653107	-32.7605
5046.595703	87.674103	-34.4684
5083.165527	87.565262	-36.1095
5120.000000	87.409821	-37.6486
5157.101562	87.286957	-38.9867
5194.472168	87.143799	-40.1556
5232.113281	86.933853	-41.1550
5270.027344	86.714066	-41.9843
5308.216309	86.539413	-42.6222
5346.681641	86.371849	-43.1297
5385.426270	86.177338	-43.5209
5424.451172	85.996834	-43.9169
5463.758789	85.907181	-44.5402
5503.351562	85.768959	-45.1046
5543.230957	85.405884	-45.4597
5583.399414	84.999985	-45.4095
5623.859375	84.680740	-44.5632
5664.611816	84.436996	-43.3525
5705.660156	84.322014	-42.0706
5747.005859	84.269173	-40.7596
5788.650879	84.219299	-39.5798
5830.597656	84.200989	-38.4666
5872.848633	84.223717	-37.3739
5915.405762	84.287560	-36.4026
5958.271484	84.402756	-35.6153
6001.447266	84.548195	-35.0830
6044.936523	84.719521	-34.9373
6088.740234	84.876297	-35.0598
6132.861816	84.965584	-35.4136
6177.303223	85.019791	-35.8805
6222.066406	85.053314	-36.3262
6267.154297	85.068954	-36.7618
6312.568359	85.070885	-37.1425
6358.312012	85.069008	-37.5062
6404.386719	85.084991	-37.9065
6450.795898	85.088051	-38.2534
6497.541016	85.027176	-38.4414
6544.625000	84.983101	-38.5674
6592.049805	85.042641	-38.6349
6639.818359	85.139450	-38.8235
6687.933594	85.241364	-39.3560
6736.396973	85.329620	-40.1106
6785.211426	85.373619	-41.0869
6834.379883	85.377090	-42.1366
6883.904785	85.313820	-43.0649
6933.788574	85.243324	-44.0079
6984.033691	85.253159	-45.0631
7034.642578	85.235268	-46.1573
7085.618652	85.079346	-47.2987
7136.963867	84.875107	-48.3372
7188.681152	84.691994	-49.1313
7240.773438	84.485161	-49.6591
7293.243164	84.204346	-49.8417
7346.092773	83.932281	-49.7085
7399.325684	83.745995	-49.1962
7452.944336	83.615532	-48.5058
7506.951172	83.535965	-47.7935
7561.350098	83.507027	-47.1361
7616.142578	83.537369	-46.6549
7671.332031	83.595657	-46.3719
7726.921875	83.654701	-46.3680
7782.914551	83.709740	-46.5873
7839.312500	83.750778	-47.0276
7896.119629	83.766991	-47.6067
7953.337891	83.735481	-48.2404
8010.971191	83.682304	-48.9313
8069.021973	83.637474	-49.6652
8127.493164	83.567474	-50.4091
8186.388672	83.439087	-51.1495
8245.710938	83.279900	-51.8138
8305.461914	83.105217	-52.3011
8365.647461	82.919983	-52.6812
8426.267578	82.752266	-53.0610
8487.328125	82.548225	-53.2329
8548.831055	82.216042	-52.9879
8610.779297	81.895508	-52.4277
8673.176758	81.735687	-51.5379
8736.026367	81.622581	-50.4641
8799.331055	81.463295	-49.3540
8863.094727	81.337502	-48.1912
8927.320312	81.319153	-46.9965
8992.010742	81.336876	-45.8022
9057.170898	81.315353	-44.6162
9122.802734	81.336693	-43.5353
9188.910156	81.493263	-42.6288
9255.497070	81.682976	-41.9895
9322.566406	81.829552	-41.8171
9390.121094	81.943504	-41.8624
9458.166016	81.997299	-41.9492
9526.704102	82.030838	-42.0496
9595.738281	82.073616	-42.0375
9665.273438	82.130623	-42.0339
9735.311523	82.223442	-42.1013
9805.857422	82.331383	-42.2925
9876.915039	82.442513	-42.6838
9948.487305	82.551414	-43.2672
10020.578125	82.651855	-44.0599
10093.191406	82.734612	-45.0609
10166.331055	82.796089	-46.3011
10240.000000	82.813065	-47.7020
10314.203125	82.760742	-49.2433
10388.944336	82.639763	-50.7806
10464.226562	82.442543	-52.2322
10540.054688	82.169899	-53.3893
10616.432617	81.788620	-53.9941
10693.363281	81.392273	-54.1068
10770.852539	81.076408	-53.6440
10848.902344	80.805359	-52.7836
10927.517578	80.562973	-51.6326
11006.703125	80.382774	-50.3263
11086.461914	80.317764	-49.0345
11166.798828	80.295090	-47.7609
11247.718750	80.240875	-46.5814
11329.223633	80.208069	-45.4457
11411.320312	80.234940	-44.2957
11494.011719	80.294609	-43.2294
11577.301758	80.380066	-42.3674
11661.195312	80.468536	-41.5882
11745.697266	80.509926	-40.7623
11830.811523	80.578476	-40.0276
11916.542969	80.776787	-39.5206
12002.894531	80.973053	-39.1220
12089.873047	81.017265	-38.7815
12177.480469	81.060600	-38.4222
12265.723633	81.223839	-37.8340
12354.606445	81.455582	-37.3638
12444.132812	81.754951	-37.2800
12534.308594	82.087151	-37.6218
12625.136719	82.426346	-38.5337
12716.624023	82.744423	-39.9641
12808.773438	83.019768	-41.9940
12901.591797	83.207260	-44.3669
12995.082031	83.231453	-46.8954
13089.250000	83.160538	-49.4474
13184.099609	83.054474	-51.8715
13279.636719	82.866241	-54.0394
13375.867188	82.530647	-55.7588
13472.793945	82.159126	-57.0726
13570.422852	81.875427	-57.9708
13668.759766	81.581894	-58.4247
13767.809570	81.170349	-58.3776
13867.577148	80.790001	-57.9000
13968.067383	80.579926	-56.9026
14069.285156	80.469391	-55.8091
14171.237305	80.465309	-55.1066
14273.927734	80.469086	-54.5289
14377.362305	80.342255	-54.0063
14481.546875	80.208618	-53.4185
14586.486328	80.159378	-52.5428
14692.185547	80.159859	-51.6152
14798.651367	80.213219	-50.8187
14905.888672	80.294479	-50.0989
15013.902344	80.366089	-49.4495
15122.700195	80.468292	-48.9037
15232.285156	80.636978	-48.4504
15342.664062	80.849579	-48.2185
15453.843750	81.093872	-48.2814
15565.829102	81.373398	-48.7987
15678.625000	81.727516	-50.0189
15792.239258	82.037590	-51.7513
15906.675781	82.168518	-53.9668
16021.942383	82.205002	-56.4224
16138.043945	82.199303	-58.8712
16254.986328	82.118706	-61.2911
16372.777344	81.937622	-63.6122
16491.421875	81.684570	-65.7360
16610.923828	81.391365	-67.6331
16731.294922	81.024384	-69.0267
16852.535156	80.489578	-69.5206
16974.656250	79.997566	-69.4349
17097.662109	79.794487	-68.8566
17221.558594	79.688522	-68.1046
17346.353516	79.535828	-67.5502
17472.052734	79.427460	-67.1291
17598.662109	79.434868	-66.8453
17726.189453	79.479713	-66.8539
17854.640625	79.519112	-67.4028
17984.021484	79.514236	-68.2238
18114.341797	79.391464	-69.1748
18245.605469	79.212151	-70.1149
18377.820312	79.010857	-70.8105
18510.994141	78.797272	-71.3977
18645.132812	78.612671	-71.9851
18780.242188	78.396355	-72.4291
18916.332031	78.065659	-72.6150
19053.408203	77.724899	-72.5591
19191.476562	77.483810	-72.2526
19330.546875	77.248375	-71.6592
19470.623047	76.907494	-70.6836
19611.714844	76.616364	-69.4933
19753.830078	76.545006	-68.1505
19896.974609	76.544930	-66.8801
