"Directivity Index"			
"Sound Power DI"		"Early Reflections DI"	
"Frequency [Hz]"	"[dB] Directivity Index "	"Frequency [Hz]"	"[dB] Directivity Index "
20.5078	-2.85981	20.5078	-1.20476
21.9727	-2.54892	21.9727	-1.00344
23.4375	-0.326329	23.4375	0.143523
24.9023	-2.89457	24.9023	-0.863277
26.3672	-3.77958	26.3672	-1.44533
27.832	-3.32057	27.832	-1.23831
29.2969	-2.5846	29.2969	-0.950541
30.7617	-2.44947	30.7617	-0.904043
32.2266	-2.08033	32.2266	-0.759405
33.6914	-1.85933	33.6914	-0.673624
35.1562	-1.77006	35.1562	-0.637687
36.6211	-1.64354	36.6211	-0.594632
38.0859	-1.50316	38.0859	-0.545745
39.5508	-1.34341	39.5508	-0.488007
41.0156	-1.17814	41.0156	-0.437863
42.4805	-1.09258	42.4805	-0.399571
43.9453	-1.03616	43.9453	-0.382081
45.4102	-0.943824	45.4102	-0.349394
46.875	-0.855355	46.875	-0.319419
48.3398	-0.778215	48.3398	-0.289614
51.2695	-0.723646	51.2695	-0.270674
52.7344	-0.701716	52.7344	-0.265404
54.1992	-0.617954	54.1992	-0.236681
55.6641	-0.471439	55.6641	-0.180734
58.5938	-0.381952	58.5938	-0.148384
60.0586	-0.357464	60.0586	-0.139062
62.9883	-0.322802	62.9883	-0.129359
64.4531	-0.321268	64.4531	-0.129907
67.3828	-0.347475	67.3828	-0.141497
68.8477	-0.389668	68.8477	-0.157664
71.7773	-0.339474	71.7773	-0.135276
74.707	-0.243928	74.707	-0.0981251
77.6367	-0.203477	77.6367	-0.0839995
79.1016	-0.137491	79.1016	-0.0585004
82.0312	-0.0143514	82.0312	-0.0156777
84.9609	-0.0307522	84.9609	-0.0247861
87.8906	0.0388914	87.8906	0.0167926
90.8203	-0.0104216	90.8203	0.000518196
95.2148	0.164525	95.2148	0.0622019
98.1445	0.0823383	98.1445	0.0352321
101.074	0.0988975	101.074	0.0455943
105.469	0.192775	105.469	0.0762829
108.398	0.315149	108.398	0.12648
112.793	0.448115	112.793	0.167802
117.188	0.392401	117.188	0.148577
120.117	0.419037	120.117	0.164696
124.512	0.484279	124.512	0.180624
128.906	0.330483	128.906	0.118252
133.301	0.327894	133.301	0.140308
139.16	0.442226	139.16	0.189374
143.555	0.504225	143.555	0.225732
147.949	0.619958	147.949	0.268202
153.809	0.57986	153.809	0.250565
159.668	0.495479	159.668	0.215693
165.527	0.574137	165.527	0.269749
171.387	0.591665	171.387	0.273802
177.246	0.865317	177.246	0.419867
183.105	0.996939	183.105	0.411187
188.965	0.811657	188.965	0.375404
196.289	0.851482	196.289	0.4023
203.613	1.2499	203.613	0.542159
210.938	1.12868	210.938	0.500416
218.262	0.959041	218.262	0.465309
225.586	1.33714	225.586	0.626103
232.91	1.49742	232.91	0.656127
241.699	1.44226	241.699	0.587037
250.488	1.58414	250.488	0.676663
259.277	1.66686	259.277	0.73038
268.066	1.3339	268.066	0.516488
276.855	1.31753	276.855	0.603206
287.109	1.53482	287.109	0.74869
297.363	2.28009	297.363	1.07059
307.617	2.05882	307.617	0.896331
319.336	2.21269	319.336	1.06375
329.59	2.29751	329.59	0.956294
341.309	2.45945	341.309	1.13148
353.027	2.61773	353.027	0.999394
366.211	2.69293	366.211	0.992989
379.395	2.65443	379.395	0.980191
392.578	2.52664	392.578	0.871475
405.762	2.93032	405.762	1.18915
420.41	2.75384	420.41	1.02937
435.059	2.75268	435.059	1.12795
451.172	3.14904	451.172	1.00426
465.82	3.18738	465.82	1.20966
483.398	3.08959	483.398	1.05201
499.512	3.12752	499.512	1.15494
517.09	2.79327	517.09	0.993027
536.133	3.71474	536.133	1.45117
555.176	3.81063	555.176	1.2809
574.219	3.29012	574.219	0.856412
594.727	3.33685	594.727	1.05018
615.234	3.49925	615.234	1.07588
637.207	3.54299	637.207	1.15676
659.18	4.08357	659.18	1.50024
682.617	4.07328	682.617	1.65167
707.52	4.53763	707.52	1.82775
732.422	4.4708	732.422	1.79879
757.324	4.49545	757.324	1.91743
785.156	5.00043	785.156	2.25107
811.523	5.00922	811.523	2.29811
840.82	5.06245	840.82	2.33229
870.117	5.4247	870.117	2.57644
900.879	5.09208	900.879	2.26664
933.105	5.34326	933.105	2.39431
965.332	5.29664	965.332	2.26368
1,000.49	5.32861	1,000.49	2.32309
1,035.64	5.34546	1,035.64	2.35216
1,072.27	5.49166	1,072.27	2.48921
1,108.89	5.10902	1,108.89	2.19672
1,148.44	5.29955	1,148.44	2.33719
1,189.45	5.63362	1,189.45	2.50294
1,230.47	5.93972	1,230.47	2.70065
1,274.41	6.37649	1,274.41	2.9049
1,319.82	6.70178	1,319.82	3.041
1,366.7	6.27517	1,366.7	2.79408
1,413.57	6.14713	1,413.57	2.68562
1,463.38	6.15966	1,463.38	2.76664
1,516.11	6.35071	1,516.11	2.77367
1,568.85	6.45503	1,568.85	2.86114
1,624.51	6.88555	1,624.51	3.08645
1,681.64	7.19844	1,681.64	3.15191
1,741.7	7.4356	1,741.7	3.27083
1,803.22	7.5484	1,803.22	3.39125
1,866.21	7.3036	1,866.21	3.26715
1,932.13	7.06009	1,932.13	3.1846
1,999.51	7.13998	1,999.51	3.20143
2,069.82	6.95594	2,069.82	3.17676
2,143.07	6.75158	2,143.07	3.08041
2,219.24	6.21379	2,219.24	2.72489
2,296.88	5.91087	2,296.88	2.50916
2,378.91	5.81321	2,378.91	2.46736
2,462.4	6.11067	2,462.4	2.57293
2,548.83	5.89785	2,548.83	2.45764
2,639.65	5.46696	2,639.65	2.26966
2,731.93	5.3681	2,731.93	2.1576
2,828.61	5.49947	2,828.61	2.19037
2,928.22	5.76198	2,928.22	2.26491
3,030.76	5.64166	3,030.76	2.15646
3,137.7	5.5036	3,137.7	2.03841
3,249.02	5.28456	3,249.02	1.94994
3,363.28	5.30062	3,363.28	2.0431
3,481.93	5.278	3,481.93	1.97914
3,604.98	5.28516	3,604.98	1.99256
3,732.42	5.74265	3,732.42	2.25681
3,864.26	5.32995	3,864.26	1.97173
4,000.49	5.5107	4,000.49	2.0703
4,141.11	5.44927	4,141.11	1.97811
4,287.6	5.40454	4,287.6	1.95698
4,438.48	5.66108	4,438.48	2.22181
4,595.21	5.16494	4,595.21	1.98623
4,756.35	5.72868	4,756.35	2.07318
4,924.8	5.89842	4,924.8	2.101
5,097.66	5.50667	5,097.66	1.66428
5,277.83	5.93402	5,277.83	1.98039
5,463.87	5.74771	5,463.87	2.03741
5,657.23	5.55115	5,657.23	1.79792
5,856.45	5.50425	5,856.45	1.77472
6,062.99	5.51107	6,062.99	1.99906
6,276.86	5.95674	6,276.86	2.42258
6,498.05	6.30029	6,498.05	2.50869
6,726.56	6.26649	6,726.56	2.41583
6,963.87	6.34001	6,963.87	2.37804
7,209.96	6.12336	7,209.96	2.3544
7,464.84	5.79458	7,464.84	2.10105
7,727.05	5.77903	7,727.05	1.9423
7,999.51	5.51076	7,999.51	1.66075
8,282.23	5.51061	8,282.23	1.65294
8,573.73	5.58824	8,573.73	1.82497
8,876.95	5.77913	8,876.95	1.85214
9,188.96	5.68615	9,188.96	1.81845
9,514.16	6.00818	9,514.16	2.07622
9,849.61	6.23572	9,849.61	2.31029
10,196.8	6.58832	10,196.8	2.41855
10,555.7	7.05256	10,555.7	2.74303
10,927.7	7.78071	10,927.7	3.228
11,313	8.41999	11,313	3.66568
11,712.9	8.96403	11,712.9	4.01863
12,126	9.34252	12,126	4.16535
12,553.7	9.67662	12,553.7	4.34109
12,996.1	9.99489	12,996.1	4.5548
13,454.6	10.1634	13,454.6	4.6302
13,929.2	10.4401	13,929.2	4.79397
14,419.9	10.5593	14,419.9	4.83284
14,928.2	10.7091	14,928.2	4.89579
15,455.6	10.7933	15,455.6	4.94132
16,000.5	10.8681	16,000.5	4.98432
16,564.5	10.9919	16,564.5	5.05906
17,148.9	11.1482	17,148.9	5.1878
17,752.4	11.402	17,752.4	5.36566
18,379.4	11.7877	18,379.4	5.53715
19,026.9	12.0033	19,026.9	5.60005
19,697.8	11.9454	19,697.8	5.57512
19,999.5	11.9234	19,999.5	5.57034
