"Directivity Index"			
"Sound Power DI"		"Early Reflections DI"	
"Frequency [Hz]"	"[dB] Directivity Index "	"Frequency [Hz]"	"[dB] Directivity Index "
20.5078	-3.44396	20.5078	-1.16691
21.9727	-2.98156	21.9727	-1.02823
23.4375	-2.91025	23.4375	-1.03467
24.9023	-2.69034	24.9023	-0.961369
26.3672	-2.38506	26.3672	-0.850441
27.832	-2.02977	27.832	-0.708143
29.2969	-1.79753	29.2969	-0.62188
30.7617	-1.62626	30.7617	-0.560952
32.2266	-1.4306	32.2266	-0.488566
33.6914	-1.22447	33.6914	-0.415558
35.1562	-1.10991	35.1562	-0.378233
36.6211	-0.967649	36.6211	-0.32683
38.0859	-0.854994	38.0859	-0.286477
39.5508	-0.710585	39.5508	-0.235983
41.0156	-0.593874	41.0156	-0.196558
42.4805	-0.580139	42.4805	-0.197167
43.9453	-0.514591	43.9453	-0.17527
45.4102	-0.395516	45.4102	-0.131671
46.875	-0.372688	46.875	-0.123765
48.3398	-0.358656	48.3398	-0.120046
51.2695	-0.344842	51.2695	-0.119237
52.7344	-0.243798	52.7344	-0.0853348
54.1992	-0.105647	54.1992	-0.0331255
55.6641	-0.0308877	55.6641	-0.00175188
58.5938	-0.069657	58.5938	-0.0213304
60.0586	-0.0665828	60.0586	-0.0218088
62.9883	-0.0562744	62.9883	-0.0216146
64.4531	-0.0576292	64.4531	-0.0200446
67.3828	-0.0684477	67.3828	-0.0268156
68.8477	-0.0734538	68.8477	-0.0260645
71.7773	-0.0308921	71.7773	-0.00718066
74.707	0.00133548	74.707	0.00512316
77.6367	0.00831552	77.6367	0.0060414
79.1016	0.0554255	79.1016	0.0222873
82.0312	0.105071	82.0312	0.0386022
84.9609	0.117659	84.9609	0.0428323
87.8906	0.109223	87.8906	0.0491996
90.8203	0.148251	90.8203	0.0702081
95.2148	0.170399	95.2148	0.0774492
98.1445	0.305479	98.1445	0.130223
101.074	0.301962	101.074	0.129868
105.469	0.416505	105.469	0.16446
108.398	0.523885	108.398	0.206951
112.793	0.622362	112.793	0.24652
117.188	0.576506	117.188	0.23286
120.117	0.67898	120.117	0.261469
124.512	0.600281	124.512	0.220875
128.906	0.522882	128.906	0.204923
133.301	0.55328	133.301	0.228422
139.16	0.767664	139.16	0.315109
143.555	0.810487	143.555	0.326836
147.949	0.76423	147.949	0.307162
153.809	0.774815	153.809	0.332613
159.668	0.886158	159.668	0.37552
165.527	0.89938	165.527	0.380525
171.387	1.00008	171.387	0.410221
177.246	1.12009	177.246	0.470395
183.105	1.08765	183.105	0.424932
188.965	1.09926	188.965	0.446873
196.289	1.22279	196.289	0.505878
203.613	1.40703	203.613	0.552817
210.938	1.389	210.938	0.530582
218.262	1.29258	218.262	0.526149
225.586	1.53192	225.586	0.601697
232.91	1.65738	232.91	0.636464
241.699	1.63582	241.699	0.589052
250.488	1.98507	250.488	0.764817
259.277	1.85259	259.277	0.682091
268.066	1.93372	268.066	0.69536
276.855	1.79521	276.855	0.491898
287.109	1.57276	287.109	0.404547
297.363	2.06181	297.363	0.612277
307.617	1.75292	307.617	0.382072
319.336	1.76623	319.336	0.372473
329.59	1.1157	329.59	-0.140302
341.309	0.670823	341.309	-0.256773
353.027	-0.21672	353.027	-0.82347
366.211	0.640845	366.211	0.467013
379.395	0.48174	379.395	1.11454
392.578	2.46098	392.578	2.27839
405.762	3.64219	405.762	2.42273
420.41	3.39116	420.41	1.89168
435.059	3.38262	435.059	1.89361
451.172	3.72568	451.172	1.63673
465.82	3.50138	465.82	1.55193
483.398	3.7357	483.398	1.69634
499.512	3.09416	499.512	1.33917
517.09	2.89169	517.09	1.27655
536.133	3.18296	536.133	1.22615
555.176	2.69056	555.176	0.649884
574.219	3.46769	574.219	1.12505
594.727	4.00663	594.727	1.62894
615.234	4.01768	615.234	1.52124
637.207	4.08263	637.207	1.66872
659.18	4.15554	659.18	1.67754
682.617	3.95278	682.617	1.71476
707.52	4.38866	707.52	1.74273
732.422	3.99929	732.422	1.52755
757.324	4.32084	757.324	1.82473
785.156	4.64388	785.156	1.91962
811.523	4.8343	811.523	2.18811
840.82	5.0332	840.82	2.21218
870.117	5.35806	870.117	2.4439
900.879	5.43411	900.879	2.39624
933.105	5.51589	933.105	2.47465
965.332	5.71861	965.332	2.61707
1,000.49	5.33914	1,000.49	2.36291
1,035.64	5.01565	1,035.64	2.22229
1,072.27	5.02851	1,072.27	2.25174
1,108.89	4.38881	1,108.89	1.72842
1,148.44	4.89377	1,148.44	2.13552
1,189.45	5.06864	1,189.45	2.19195
1,230.47	5.15601	1,230.47	2.1968
1,274.41	5.94511	1,274.41	2.47466
1,319.82	5.89328	1,319.82	2.42296
1,366.7	5.91942	1,366.7	2.39645
1,413.57	5.62358	1,413.57	2.1286
1,463.38	5.11627	1,463.38	1.85597
1,516.11	5.07745	1,516.11	1.71191
1,568.85	5.23085	1,568.85	1.87218
1,624.51	5.69659	1,624.51	2.00022
1,681.64	6.0753	1,681.64	2.21171
1,741.7	6.32585	1,741.7	2.30296
1,803.22	6.17649	1,803.22	2.16705
1,866.21	5.67327	1,866.21	1.85079
1,932.13	6.15336	1,932.13	2.19291
1,999.51	6.603	1,999.51	2.52812
2,069.82	7.02274	2,069.82	2.7793
2,143.07	7.13645	2,143.07	2.75824
2,219.24	6.66129	2,219.24	2.56844
2,296.88	6.58566	2,296.88	2.59948
2,378.91	6.8521	2,378.91	2.88527
2,462.4	7.29972	2,462.4	3.04999
2,548.83	7.0482	2,548.83	2.89976
2,639.65	6.54918	2,639.65	2.68287
2,731.93	6.68037	2,731.93	2.74779
2,828.61	7.07565	2,828.61	2.93481
2,928.22	7.32442	2,928.22	3.0666
3,030.76	7.11705	3,030.76	2.9807
3,137.7	6.70815	3,137.7	2.75419
3,249.02	6.50619	3,249.02	2.62115
3,363.28	6.73502	3,363.28	2.72021
3,481.93	6.23619	3,481.93	2.40292
3,604.98	6.03223	3,604.98	2.32537
3,732.42	6.32324	3,732.42	2.55034
3,864.26	5.53118	3,864.26	2.03321
4,000.49	5.18721	4,000.49	1.79895
4,141.11	4.79708	4,141.11	1.44866
4,287.6	5.05885	4,287.6	1.52995
4,438.48	5.44122	4,438.48	1.85952
4,595.21	4.70112	4,595.21	1.28772
4,756.35	5.43525	4,756.35	1.71048
4,924.8	5.01773	4,924.8	1.35992
5,097.66	5.30408	5,097.66	1.4168
5,277.83	5.96469	5,277.83	1.86362
5,463.87	6.01	5,463.87	1.82146
5,657.23	6.51221	5,657.23	2.1647
5,856.45	6.62941	5,856.45	2.35203
6,062.99	6.91296	6,062.99	2.70241
6,276.86	7.04534	6,276.86	2.70796
6,498.05	7.17466	6,498.05	2.82494
6,726.56	7.28474	6,726.56	2.98565
6,963.87	7.3504	6,963.87	3.12942
7,209.96	7.30514	7,209.96	2.97626
7,464.84	8.16207	7,464.84	3.46563
7,727.05	8.67243	7,727.05	3.79492
7,999.51	8.70797	7,999.51	3.80026
8,282.23	8.89542	8,282.23	3.92066
8,573.73	9.01626	8,573.73	3.95659
8,876.95	9.19211	8,876.95	3.97523
9,188.96	9.22928	9,188.96	4.08047
9,514.16	9.27766	9,514.16	4.0309
9,849.61	9.55131	9,849.61	4.19301
10,196.8	9.98696	10,196.8	4.36228
10,555.7	10.1344	10,555.7	4.51084
10,927.7	10.0867	10,927.7	4.50874
11,313	10.0523	11,313	4.50681
11,712.9	10.1745	11,712.9	4.60741
12,126	10.5065	12,126	4.79134
12,553.7	10.9142	12,553.7	5.03648
12,996.1	11.1841	12,996.1	5.19381
13,454.6	11.3334	13,454.6	5.27105
13,929.2	11.3803	13,929.2	5.32257
14,419.9	11.4934	14,419.9	5.31799
14,928.2	11.6919	14,928.2	5.36947
15,455.6	11.6773	15,455.6	5.41681
16,000.5	11.8023	16,000.5	5.46903
16,564.5	12.0292	16,564.5	5.51365
17,148.9	12.3396	17,148.9	5.56893
17,752.4	12.5029	17,752.4	5.5735
18,379.4	12.6454	18,379.4	5.5662
19,026.9	12.7678	19,026.9	5.57295
19,697.8	12.8551	19,697.8	5.59153
19,999.5	12.8937	19,999.5	5.63146
