* Measurement data measured by REW V5.20 Beta 53
* Source: C:\Users\Napie\Music\REW\Top Speakers\New Folder\10-LW.txt
* Format: Comma/Tab/Space delimited data
* Dated: May 26, 2020 3:17:22 PM
* REW Settings:
*  C-weighting compensation: Off
*  Target level: 75.0 dB
* Note: ; Measurement imported from C:\Users\Napie\Music\REW\Top Speakers\New Folder\10-LW.txt Format: Comma/Tab/Space delimited data 623 values loaded, 5 Hz to 39,792 Hz log spaced 
* Measurement: 10-LW
* Smoothing: None
* Frequency Step: 1/96 octave
* Start Frequency: 20.000 Hz
*
* Freq(Hz)	SPL(dB)	Phase(degrees)
20.000000	57.291683	-12.4249
20.144928	57.622131	-13.6353
20.290907	57.952705	-14.8889
20.437943	58.283756	-16.1778
20.586044	58.614773	-17.5530
20.735220	58.958645	-19.0912
20.885475	59.275658	-20.7071
21.036821	59.524723	-22.4106
21.189262	59.722782	-23.9942
21.342808	59.854973	-25.2469
21.497467	59.975842	-26.1871
21.653246	60.132713	-26.7068
21.810154	60.332699	-26.9748
21.968201	60.606194	-27.1113
22.127390	60.930618	-27.1540
22.287735	61.276730	-27.1199
22.449242	61.694630	-27.1899
22.611917	62.249474	-27.4941
22.775772	62.867218	-28.2018
22.940815	63.505234	-29.5610
23.107054	64.134201	-31.4661
23.274498	64.722168	-33.9846
23.443153	65.234367	-36.8440
23.613033	65.599083	-39.8318
23.784142	65.894753	-42.8334
23.956491	66.176178	-45.6003
24.130091	66.443687	-48.3229
24.304947	66.734344	-51.1349
24.481071	66.992683	-53.9583
24.658470	67.157555	-56.7837
24.837156	67.282845	-59.5383
25.017136	67.415283	-62.1582
25.198421	67.515923	-64.6066
25.381020	67.539680	-66.8283
25.564941	67.550987	-68.8142
25.750195	67.602364	-70.4609
25.936790	67.684875	-71.9971
26.124741	67.834541	-73.6692
26.314051	67.968849	-75.3216
26.504732	67.983124	-76.8986
26.696796	67.978996	-78.3453
26.890253	68.051720	-79.6007
27.085112	68.116943	-80.6290
27.281382	68.085983	-81.3913
27.479073	68.065994	-81.8366
27.678198	68.134842	-81.7816
27.878765	68.292709	-81.5833
28.080786	68.589592	-81.5144
28.284271	68.953468	-81.6476
28.489231	69.324661	-82.1702
28.695675	69.715439	-83.0096
28.903616	70.119476	-84.1274
29.113064	70.533394	-85.6076
29.324028	70.976501	-87.5804
29.536524	71.374580	-89.8701
29.750557	71.635689	-92.3929
29.966141	71.831810	-95.0021
30.183289	72.014755	-97.5301
30.402010	72.153862	-99.9560
30.622314	72.216316	-102.1908
30.844217	72.259941	-104.2716
31.067726	72.352501	-106.2159
31.292856	72.431908	-107.9934
31.519617	72.426758	-109.5514
31.748020	72.431961	-110.9733
31.978081	72.552773	-112.3029
32.209808	72.687836	-113.6073
32.443211	72.756744	-115.0338
32.678310	72.800957	-116.3863
32.915108	72.826218	-117.4959
33.153625	72.859947	-118.4259
33.393871	72.927879	-119.1176
33.635857	73.040787	-119.7689
33.879597	73.245499	-120.5895
34.125103	73.459724	-121.4867
34.372387	73.584511	-122.4396
34.621464	73.715775	-123.4415
34.872345	73.938545	-124.4190
35.125042	74.187691	-125.5505
35.379574	74.439285	-127.0725
35.635948	74.653786	-128.7390
35.894180	74.753326	-130.3820
36.154285	74.828888	-132.0007
36.416275	74.969902	-133.5279
36.680161	75.103813	-134.9948
36.945961	75.164490	-136.4135
37.213688	75.220909	-137.7740
37.483353	75.337372	-139.0449
37.754974	75.462807	-140.3030
38.028561	75.560989	-141.6363
38.304131	75.650887	-142.9812
38.581699	75.740944	-144.2971
38.861279	75.826874	-145.6030
39.142883	75.909515	-146.9151
39.426529	75.981911	-148.2013
39.712231	76.032806	-149.4394
40.000000	76.075935	-150.6163
40.289856	76.122498	-151.7066
40.581814	76.168930	-152.7256
40.875885	76.215370	-153.6842
41.172089	76.261932	-154.5707
41.470440	76.308929	-155.3975
41.770950	76.355927	-156.1040
42.073643	76.380066	-156.5584
42.378525	76.448845	-156.9853
42.685616	76.664230	-157.5635
42.994934	76.900681	-158.3008
43.306492	77.039383	-159.3001
43.620308	77.160812	-160.4541
43.936401	77.332550	-161.7193
44.254780	77.475822	-163.0070
44.575470	77.496620	-164.2079
44.898483	77.506966	-165.3403
45.223835	77.614624	-166.3219
45.551544	77.739822	-167.3454
45.881630	77.850052	-168.6797
46.214108	77.909973	-170.0160
46.548996	77.835777	-171.1253
46.886307	77.740128	-172.0338
47.226067	77.744110	-172.7183
47.568283	77.740044	-173.0997
47.912983	77.596779	-173.0249
48.260181	77.504044	-172.6917
48.609894	77.671036	-172.1813
48.962143	77.910629	-171.6926
49.316940	78.070557	-171.4997
49.674313	78.252663	-171.4590
50.034271	78.520348	-171.4198
50.396843	78.838478	-171.6753
50.762039	79.234810	-172.5862
51.129883	79.583488	-173.8027
51.500389	79.711967	-175.1472
51.873581	79.786873	-176.4608
52.249481	79.938721	-177.4474
52.628101	80.105721	-178.3415
53.009464	80.266914	-179.2966
53.393593	80.428719	179.7357
53.780506	80.590729	178.7535
54.170223	80.752731	177.7557
54.562763	80.914230	176.7405
54.958145	81.075737	175.7067
55.356396	81.237671	174.6530
55.757530	81.399734	173.5778
56.161572	81.561790	172.4811
56.568542	81.723732	171.3579
56.978462	81.885208	170.2042
57.391350	82.046700	169.0162
57.807232	82.208702	167.7910
58.226128	82.370720	166.5222
58.648056	82.532227	165.2099
59.073048	82.693733	163.8323
59.501114	82.858528	162.3705
59.932281	83.017723	160.8159
60.366577	83.165878	159.1458
60.804020	83.295799	157.3831
61.244629	83.403656	155.5044
61.688435	83.473923	153.6262
62.135452	83.475029	151.8511
62.585712	83.451042	150.1987
63.039234	83.440018	148.7469
63.496040	83.429024	147.4231
63.956161	83.417519	146.1797
64.419617	83.406021	145.0190
64.886421	83.395020	143.9266
65.356621	83.384026	142.9058
65.830215	83.372520	141.9541
66.307251	83.361023	141.0746
66.787743	83.350021	140.2612
67.271713	83.339012	139.5392
67.759193	83.321205	138.9419
68.250206	83.315994	138.4388
68.744774	83.342560	138.0379
69.242928	83.394882	137.6567
69.744690	83.479782	137.2139
70.250084	83.577812	136.7130
70.759148	83.669769	136.1178
71.271896	83.761833	135.4662
71.788361	83.853828	134.7848
72.308571	83.945824	134.0724
72.832550	84.037827	133.3362
73.360321	84.129822	132.5784
73.891922	84.221832	131.8046
74.427376	84.313828	131.0115
74.966705	84.405830	130.1982
75.509949	84.497833	129.3625
76.057121	84.589882	128.5060
76.608261	84.681816	127.6178
77.163399	84.775314	126.6879
77.722557	84.864822	125.7159
78.285767	84.949959	124.6709
78.853058	85.016891	123.6340
79.424461	85.037849	122.6822
80.000000	85.053955	121.7986
80.579712	85.106079	121.0133
81.163628	85.167877	120.2625
81.751770	85.224884	119.4811
82.344177	85.281876	118.7016
82.940880	85.338882	117.9355
83.541901	85.395897	117.1805
84.147285	85.452957	116.4366
84.757050	85.509895	115.7074
85.371231	85.566391	114.9922
85.989868	85.622879	114.3034
86.612984	85.676765	113.6590
87.240616	85.736877	113.0412
87.872803	85.814583	112.4390
88.509560	85.899826	111.8502
89.150940	85.977455	111.3007
89.796967	86.073769	110.6954
90.447670	86.236786	109.9018
91.103088	86.386742	109.0557
91.763260	86.419952	108.2587
92.428215	86.454887	107.4825
93.097992	86.605415	106.7940
93.772614	86.783646	106.0087
94.452133	86.942886	104.8870
95.136566	87.071785	103.6586
95.825966	87.123047	102.4724
96.520363	87.157921	101.3343
97.219788	87.229584	100.3462
97.924286	87.315811	99.3680
98.633881	87.422409	98.2582
99.348625	87.517838	97.1212
100.068542	87.554253	96.0157
100.793686	87.585907	94.9406
101.524078	87.661469	93.9459
102.259766	87.750763	92.9366
103.000778	87.838928	91.8329
103.747162	87.927834	90.6374
104.498962	88.024399	89.2953
105.256203	88.098900	87.8996
106.018929	88.109695	86.5095
106.787186	88.099030	85.1725
107.561012	88.098999	83.9746
108.340446	88.098999	82.8597
109.125526	88.097809	81.7964
109.916290	88.098991	80.7957
110.712791	88.098915	79.8942
111.515060	88.117928	78.9850
112.323143	88.195518	77.9580
113.137085	88.270882	76.8583
113.956924	88.280579	75.6621
114.782700	88.271034	74.4669
115.614464	88.268066	73.3936
116.452255	88.270988	72.3499
117.296112	88.292084	71.2967
118.146095	88.317947	70.1943
119.002228	88.348267	68.9512
119.864563	88.356026	67.6844
120.733154	88.299232	66.4602
121.608040	88.222160	65.3412
122.489258	88.152267	64.4553
123.376869	88.099098	63.6718
124.270905	88.091309	62.9124
125.171425	88.098984	62.1474
126.078468	88.098999	61.3021
126.992081	88.098999	60.4329
127.912323	88.089256	59.6232
128.839233	88.098946	58.7180
129.772842	88.189003	57.5495
130.713242	88.254936	56.2367
131.660431	88.187889	54.7506
132.614502	88.060417	53.3695
133.575485	87.889153	52.4404
134.543427	87.734245	51.7322
135.518387	87.685051	51.1829
136.500412	87.671005	50.6251
137.489548	87.661598	49.7908
138.485855	87.625153	48.9191
139.489380	87.493652	48.1466
140.500168	87.345314	47.5162
141.518295	87.244080	47.1600
142.543793	87.166168	46.9444
143.576721	87.107925	46.7803
144.617142	87.072060	46.6642
145.665100	87.056999	46.5852
146.720642	87.071915	46.4774
147.783844	87.128677	46.3114
148.854752	87.217735	45.9662
149.933411	87.354294	45.2689
151.019897	87.475754	44.3445
152.114243	87.504097	43.2332
153.216522	87.500031	42.0194
154.326797	87.511116	40.8072
155.445114	87.500061	39.5768
156.571533	87.440292	38.3062
157.706116	87.346245	37.1046
158.848923	87.215767	36.0802
160.000000	87.072342	35.2139
161.159424	86.941551	34.5291
162.327255	86.815277	34.0050
163.503540	86.681396	33.6764
164.688354	86.577187	33.4006
165.881760	86.563309	33.0414
167.083801	86.558044	32.6122
168.294571	86.487595	32.0103
169.514099	86.387268	31.4502
170.742462	86.248154	31.1725
171.979736	86.130241	31.0004
173.225967	86.113922	30.8849
174.481232	86.129951	30.6797
175.745605	86.145676	30.1319
177.019119	86.130096	29.5115
178.301880	85.999840	29.0696
179.593933	85.879234	28.6142
180.895340	85.928795	28.0094
182.206177	85.959023	27.3336
183.526520	85.783058	26.5251
184.856430	85.549538	25.8712
186.195984	85.351059	25.7172
187.545227	85.172394	25.8315
188.904266	85.032738	26.1085
190.273132	84.920250	26.5099
191.651932	84.826958	26.9779
193.040726	84.760147	27.4657
194.439575	84.738235	27.8754
195.848572	84.720070	28.3017
197.267761	84.646812	28.8089
198.697250	84.589081	29.3935
200.137085	84.605087	30.1484
201.587372	84.674774	30.8496
203.048157	84.815521	31.2801
204.519531	84.972549	31.5076
206.001556	85.079720	31.5254
207.494324	85.187721	31.3427
208.997925	85.346436	30.9657
210.512405	85.493698	30.3986
212.037857	85.573990	29.6032
213.574371	85.615944	28.7122
215.122025	85.630371	27.8389
216.680893	85.616074	27.0051
218.251053	85.571411	26.2579
219.832581	85.508209	25.6356
221.425583	85.427467	25.2285
223.030121	85.360138	24.9277
224.646286	85.350739	24.6827
226.274170	85.359962	24.4058
227.913849	85.370743	23.9358
229.565399	85.360069	23.4431
231.228928	85.274254	23.0669
232.904510	85.188225	22.7429
234.592224	85.182556	22.4870
236.292191	85.188004	22.1968
238.004456	85.167046	21.6765
239.729126	85.103241	21.2200
241.466309	84.926674	21.1016
243.216080	84.760353	21.1895
244.978516	84.738548	21.5016
246.753738	84.759918	21.8590
248.541809	84.755318	22.0571
250.342850	84.759964	22.1887
252.156937	84.791336	22.2956
253.984161	84.834885	22.3310
255.824646	84.882751	22.2581
257.678467	84.931885	22.0875
259.545685	84.980453	21.8008
261.426483	85.016930	21.4490
263.320862	85.022316	21.0723
265.229004	85.017014	20.6860
267.150970	85.016998	20.3417
269.086853	85.016998	19.9711
271.036774	85.033043	19.4598
273.000824	85.017120	18.9972
274.979095	84.888901	18.7489
276.971710	84.760315	18.6759
278.978760	84.738556	18.8655
281.000336	84.759911	19.1024
283.036591	84.797440	19.1731
285.087585	84.845848	19.1562
287.153442	84.884132	19.0778
289.234283	84.932846	18.8857
291.330200	85.020813	18.5330
293.441284	85.102806	18.0286
295.567688	85.142067	17.3043
297.709503	85.141060	16.5449
299.866821	85.071175	15.9288
302.039795	84.989227	15.4094
304.228485	84.955521	15.0304
306.433044	84.932068	14.6970
308.653595	84.899345	14.3102
310.890228	84.861107	13.9241
313.143066	84.812080	13.5641
315.412231	84.760147	13.2180
317.697845	84.716507	12.8737
320.000000	84.666168	12.5548
322.318848	84.590179	12.2851
324.654510	84.511238	12.0537
327.007080	84.455612	11.8475
329.376709	84.394211	11.6974
331.763519	84.293327	11.6261
334.167603	84.192291	11.6448
336.589142	84.122978	11.8098
339.028198	84.075104	12.0084
341.484924	84.059471	12.1218
343.959473	84.044060	12.2227
346.451935	83.985733	12.3385
348.962463	83.928139	12.4885
351.491211	83.906342	12.7324
354.038239	83.903984	12.9763
356.603760	83.919006	13.1453
359.187866	83.942924	13.2408
361.790680	83.968864	13.2277
364.412354	83.989952	13.1433
367.053040	83.992935	13.0148
369.712860	83.990013	12.8386
372.391968	83.994804	12.6217
375.090454	83.990036	12.3598
377.808533	83.968231	11.9969
380.546265	83.913216	11.6947
383.303864	83.780907	11.6132
386.081451	83.647354	11.7045
388.879150	83.587997	12.0270
391.697144	83.562035	12.4198
394.535522	83.553246	12.7441
397.394501	83.561951	12.9894
400.274170	83.592842	13.0804
403.174744	83.616959	13.0742
406.096313	83.598778	12.9875
409.039062	83.562134	12.8663
412.003113	83.528381	12.7407
414.988647	83.470238	12.6760
417.995850	83.355225	12.7185
421.024811	83.219444	12.9568
424.075714	83.080536	13.5251
427.148743	82.962318	14.3341
430.244049	82.892883	15.3984
433.361786	82.876945	16.5384
436.502106	82.946220	17.5820
439.665161	83.047661	18.5193
442.851166	83.135925	19.2317
446.060242	83.218765	19.8741
449.292572	83.274757	20.5812
452.548340	83.346725	21.2988
455.827698	83.477913	22.0559
459.130798	83.646416	22.7361
462.457855	83.840462	23.2848
465.809021	84.072212	23.5438
469.184448	84.394333	23.2347
472.584381	84.674294	22.6610
476.008911	84.728302	22.0521
479.458252	84.759827	21.3593
482.932617	84.978584	20.6373
486.432159	85.187462	19.8029
489.957031	85.218964	18.6892
493.507477	85.188156	17.5992
497.083618	85.155739	16.8402
500.685699	85.121094	16.2378
504.313873	85.110588	15.7269
507.968323	85.103027	15.2803
511.649292	85.087563	14.8173
515.356934	85.059120	14.4341
519.091370	84.994591	14.2123
522.852966	84.937141	14.1181
526.641724	84.925850	14.2015
530.458008	84.950851	14.2918
534.301941	85.031258	14.2188
538.173706	85.118729	14.0278
542.073547	85.163887	13.6597
546.001648	85.187950	13.2614
549.958191	85.179710	13.0142
553.943420	85.187912	12.7589
557.957520	85.285210	12.4065
562.000671	85.389694	11.9219
566.073181	85.432152	11.1979
570.175171	85.444992	10.3629
574.306885	85.442924	9.5081
578.468567	85.411171	8.6410
582.660400	85.346931	7.7211
586.882568	85.228516	6.9821
591.135376	84.994087	6.6664
595.419006	84.760696	6.7112
599.733643	84.635605	7.2632
604.079590	84.589020	7.9327
608.456970	84.656761	8.3478
612.866089	84.747726	8.5955
617.307190	84.763931	8.5847
621.780457	84.760025	8.4834
626.286133	84.760750	8.4432
630.824463	84.759995	8.4250
635.395691	84.754631	8.4534
640.000000	84.759956	8.4860
644.637695	84.792168	8.5298
649.309021	84.845779	8.4596
654.014160	84.943802	8.0992
658.753418	85.016846	7.6038
663.527039	84.975410	7.0426
668.335205	84.901260	6.5017
673.178284	84.858513	6.1303
678.056396	84.813171	5.8091
682.969849	84.761345	5.4028
687.918945	84.675377	5.1038
692.903870	84.495537	5.0769
697.924927	84.313560	5.2739
702.982422	84.224449	5.7336
708.076477	84.161209	6.3566
713.207520	84.074165	7.0400
718.375732	84.004189	7.8301
723.581360	83.981895	8.7487
728.824707	83.989922	9.7663
734.106079	84.004745	10.9071
739.425720	84.074608	12.0302
744.783936	84.260597	13.0491
750.180908	84.502075	13.8219
755.617065	84.761284	14.1636
761.092529	85.029030	14.1149
766.607727	85.298897	13.5942
772.162903	85.525314	12.7863
777.758301	85.637146	11.8314
783.394287	85.703804	10.7847
789.071045	85.792053	9.7266
794.789001	85.840935	8.7205
800.548340	85.780342	7.8604
806.349487	85.702248	7.1343
812.192627	85.695740	6.6104
818.078125	85.701988	6.1417
824.006226	85.694252	5.5499
829.977295	85.663162	4.9938
835.991699	85.575661	4.5682
842.049622	85.476349	4.2916
848.151428	85.402931	4.2354
854.297485	85.344193	4.3344
860.488098	85.293579	4.5768
866.723572	85.273994	4.8729
873.004211	85.319153	5.1467
879.330322	85.390717	5.3445
885.702332	85.461304	5.3621
892.120483	85.530754	5.2755
898.585144	85.584244	5.1436
905.096680	85.638786	4.9150
911.655396	85.730698	4.4863
918.261597	85.787910	4.0714
924.915710	85.700928	3.8654
931.618042	85.616196	3.8258
938.368896	85.669533	4.0901
945.168762	85.787468	4.3105
952.017822	85.958382	4.1343
958.916504	86.129395	3.7061
965.865234	86.231186	3.0115
972.864319	86.300789	2.1821
979.914062	86.354530	1.3458
987.014954	86.386917	0.5022
994.167236	86.392380	-0.3005
1001.371399	86.387024	-1.0813
1008.627747	86.391808	-1.8434
1015.936646	86.387054	-2.5869
1023.298584	86.359886	-3.3561
1030.713867	86.310204	-4.0221
1038.182739	86.210182	-4.4269
1045.705933	86.130226	-4.7000
1053.283447	86.150993	-4.8589
1060.916016	86.215668	-5.0847
1068.603882	86.294708	-5.5623
1076.347412	86.384628	-6.3014
1084.147095	86.490837	-7.4160
1092.003296	86.557884	-8.7761
1099.916382	86.520859	-10.3465
1107.886841	86.412582	-11.9534
1115.915039	86.251259	-13.4724
1124.001343	86.016991	-14.7192
1132.146362	85.664772	-15.4790
1140.350342	85.287422	-15.7191
1148.613770	84.960899	-15.2550
1156.937134	84.692970	-14.3287
1165.320801	84.520447	-13.0825
1173.765137	84.431213	-11.6367
1182.270752	84.410988	-10.0509
1190.838013	84.502357	-8.6490
1199.467285	84.798149	-7.8076
1208.159180	85.134727	-7.4335
1216.913940	85.325676	-7.5355
1225.732178	85.527168	-8.1776
1234.614380	85.909096	-9.4425
1243.560913	86.249947	-11.2840
1252.572266	86.338600	-13.7717
1261.648926	86.307312	-16.6407
1270.791382	86.287941	-19.8656
1280.000000	86.076370	-22.7966
1289.275391	85.362625	-24.7291
1298.618042	84.588982	-25.7925
1308.028320	84.199898	-25.7206
1317.506836	83.892319	-25.0060
1327.054077	83.444672	-24.0981
1336.670410	83.043365	-22.8724
1346.356567	82.838318	-21.2458
1356.112793	82.725304	-19.5332
1365.939697	82.651535	-18.0775
1375.837891	82.608139	-16.7185
1385.807739	82.553864	-15.3828
1395.849854	82.533974	-14.1466
1405.964844	82.602989	-13.0599
1416.152954	82.693672	-12.1311
1426.415039	82.741646	-11.4034
1436.751465	82.790787	-10.8220
1447.162720	82.877083	-10.3546
1457.649414	82.961693	-9.9754
1468.212158	82.997238	-9.6217
1478.851440	83.043755	-9.3717
1489.567871	83.173782	-9.2737
1500.361816	83.304543	-9.3563
1511.234131	83.368950	-9.7344
1522.185059	83.389999	-10.1979
1533.215454	83.358391	-10.5720
1544.325806	83.305244	-10.8610
1555.516602	83.256882	-10.9679
1566.788574	83.219124	-11.0248
1578.142090	83.224289	-11.1613
1589.578003	83.219086	-11.2905
1601.096680	83.139252	-11.3882
1612.698975	83.048347	-11.3932
1624.385254	82.989120	-11.1642
1636.156250	82.962029	-10.9170
1648.012451	83.004791	-10.8385
1659.954590	83.047890	-10.8806
1671.983398	83.026604	-11.1366
1684.099243	82.962349	-11.3654
1696.302856	82.834023	-11.3320
1708.594971	82.705528	-11.1064
1720.976196	82.641312	-10.6165
1733.447144	82.620010	-10.0585
1746.008423	82.648064	-9.5895
1758.660645	82.704727	-9.2599
1771.404663	82.779816	-9.1908
1784.240967	82.847763	-9.3251
1797.170288	82.879753	-9.6744
1810.193359	82.875099	-10.1520
1823.310791	82.836586	-10.7773
1836.523193	82.725624	-11.2418
1849.831421	82.450432	-11.2083
1863.236084	82.172096	-10.7769
1876.737793	82.056725	-9.8637
1890.337524	82.002159	-8.6885
1904.035645	81.927689	-7.3751
1917.833008	81.929771	-6.1316
1931.730469	82.136070	-5.2026
1945.728638	82.376015	-4.6028
1959.828125	82.491486	-4.5081
1974.029907	82.567726	-4.6769
1988.334473	82.657944	-4.9568
2002.742798	82.704941	-5.2499
2017.255493	82.637787	-5.4187
2031.873291	82.548332	-5.4324
2046.597168	82.519638	-5.1758
2061.427734	82.510025	-4.7651
2076.365479	82.492096	-4.2549
2091.411865	82.503860	-3.7162
2106.566895	82.592934	-3.2302
2121.832031	82.704536	-2.8214
2137.207764	82.790039	-2.5720
2152.694824	82.876640	-2.3906
2168.294189	82.968048	-2.1664
2184.006592	83.087357	-2.0382
2199.832764	83.272049	-2.0670
2215.773682	83.483101	-2.3820
2231.830078	83.709106	-3.1776
2248.002686	83.903297	-4.3195
2264.292725	84.008690	-5.7971
2280.700684	84.043999	-7.4298
2297.227539	84.004921	-9.0492
2313.874268	83.904541	-10.6048
2330.641602	83.755432	-12.0112
2347.530273	83.554985	-13.2064
2364.541504	83.300751	-14.1438
2381.676025	83.004456	-14.6906
2398.934570	82.651054	-14.6566
2416.318359	82.318367	-14.1642
2433.827881	82.089264	-13.1864
2451.464355	81.935478	-11.9852
2469.228760	81.863472	-10.7882
2487.121826	81.849953	-9.6774
2505.144531	81.886971	-8.8384
2523.297852	81.934799	-8.1865
2541.582764	81.945679	-7.7471
2560.000000	81.935089	-7.3717
2578.550781	81.892220	-6.9052
2597.236084	81.849167	-6.3905
2616.056641	81.843620	-5.8079
2635.013672	81.848969	-5.1937
2654.108154	81.847191	-4.5960
2673.340820	81.848976	-3.9619
2692.713135	81.854500	-3.2444
2712.225586	81.877823	-2.4718
2731.879395	81.930161	-1.6208
2751.675781	82.020485	-0.7996
2771.615479	82.168297	-0.0796
2791.699707	82.353104	0.4512
2811.929688	82.564850	0.6975
2832.305908	82.790924	0.6083
2852.830078	83.037682	0.0320
2873.502930	83.238297	-0.8258
2894.325439	83.301628	-1.8563
2915.298828	83.305069	-2.9143
2936.424316	83.302002	-3.7958
2957.702881	83.276161	-4.5669
2979.135742	83.223206	-5.2251
3000.723633	83.159279	-5.7759
3022.468262	83.101257	-6.2095
3044.370117	83.043266	-6.5685
3066.430908	82.989014	-6.9094
3088.651611	82.926323	-7.1810
3111.033203	82.831009	-7.3242
3133.577148	82.742355	-7.4156
3156.284180	82.716927	-7.5424
3179.156006	82.680267	-7.6158
3202.193359	82.545265	-7.5929
3225.397949	82.403610	-7.4213
3248.770508	82.327888	-6.9639
3272.312500	82.292068	-6.4304
3296.024902	82.302956	-5.9919
3319.909180	82.332848	-5.6334
3343.966797	82.352905	-5.4084
3368.198486	82.372902	-5.2784
3392.605713	82.395462	-5.2175
3417.189941	82.413933	-5.2397
3441.952393	82.429031	-5.3799
3466.894287	82.421112	-5.5513
3492.016846	82.360718	-5.6987
3517.321289	82.277420	-5.7600
3542.809326	82.191338	-5.6520
3568.481934	82.102409	-5.3806
3594.340576	82.003845	-4.8739
3620.386719	81.935211	-4.2828
3646.621582	81.961494	-3.7431
3673.046387	82.000854	-3.2333
3699.662842	81.972298	-2.8138
3726.472168	81.935150	-2.3732
3753.475586	81.925507	-1.7863
3780.675049	81.934914	-1.1509
3808.071289	81.965919	-0.5024
3835.666016	82.020683	0.0934
3863.460938	82.111404	0.5651
3891.457275	82.210518	0.8948
3919.656250	82.303871	0.9731
3948.059814	82.362846	1.0038
3976.668945	82.329742	1.1307
4005.485596	82.277252	1.4289
4034.510986	82.250214	2.1242
4063.746582	82.276688	2.9083
4093.194336	82.431419	3.5624
4122.855469	82.619064	4.0332
4152.730957	82.765114	4.1130
4182.823730	82.878555	4.0474
4213.133789	82.936501	3.9586
4243.664062	82.961937	4.0181
4274.415527	82.923820	4.6073
4305.389648	82.961464	5.2224
4336.588379	83.297821	5.4700
4368.013184	83.655502	5.3833
4399.665527	83.773537	4.7117
4431.547363	83.814896	3.9207
4463.660156	83.857361	3.4808
4496.005371	83.903725	3.1406
4528.585449	83.996269	2.8015
4561.401367	84.092567	2.4597
4594.455078	84.155785	2.0541
4627.748535	84.209740	1.6598
4661.283203	84.260788	1.3665
4695.060547	84.325623	1.0726
4729.083008	84.435623	0.7151
4763.352051	84.553459	0.2634
4797.869141	84.654373	-0.3864
4832.636719	84.730705	-1.0776
4867.655762	84.745583	-1.6619
4902.928711	84.761856	-2.2134
4938.457520	84.850517	-2.7319
4974.243652	84.952538	-3.2952
5010.289062	85.025299	-4.0159
5046.595703	85.087700	-4.7900
5083.165527	85.132683	-5.4886
5120.000000	85.196579	-6.2946
5157.101562	85.348602	-7.3682
5194.472168	85.484459	-8.6550
5232.113281	85.507568	-10.2595
5270.027344	85.460396	-11.8623
5308.216309	85.323181	-13.0925
5346.681641	85.188560	-14.2006
5385.426270	85.191437	-15.3199
5424.451172	85.188156	-16.4433
5463.758789	85.041801	-17.6556
5503.351562	84.860909	-18.8115
5543.230957	84.729462	-19.7717
5583.399414	84.589760	-20.5972
5623.859375	84.392578	-21.3014
5664.611816	84.192955	-21.8923
5705.660156	84.045280	-22.3634
5747.005859	83.904747	-22.7710
5788.650879	83.735825	-23.1730
5830.597656	83.562874	-23.5601
5872.848633	83.413918	-23.9650
5915.405762	83.243980	-24.3184
5958.271484	83.007454	-24.6323
6001.447266	82.732506	-24.6946
6044.936523	82.398842	-24.1985
6088.740234	82.107239	-23.4342
6132.861816	82.003242	-22.5821
6177.303223	81.935387	-21.6776
6222.066406	81.761894	-20.8563
6267.154297	81.592751	-19.9955
6312.568359	81.513184	-18.9882
6358.312012	81.461220	-17.9175
6404.386719	81.379974	-16.7947
6450.795898	81.336067	-15.7312
6497.541016	81.416573	-14.8572
6544.625000	81.506645	-14.1293
6592.049805	81.492851	-13.6178
6639.818359	81.453224	-13.1099
6687.933594	81.417686	-12.3177
6736.396973	81.420830	-11.5298
6785.211426	81.546776	-10.9635
6834.379883	81.677437	-10.5557
6883.904785	81.694092	-10.3760
6933.788574	81.678116	-10.2379
6984.033691	81.678688	-9.9538
7034.642578	81.678009	-9.5911
7085.618652	81.666481	-9.1416
7136.963867	81.666946	-8.6486
7188.681152	81.709244	-8.1505
7240.773438	81.763710	-7.6536
7293.243164	81.798729	-7.1655
7346.092773	81.848671	-6.7201
7399.325684	81.949615	-6.3280
7452.944336	82.066399	-6.0659
7506.951172	82.185051	-6.0768
7561.350098	82.276634	-6.1754
7616.142578	82.281532	-6.2162
7671.332031	82.276970	-6.2172
7726.921875	82.338318	-6.1116
7782.914551	82.414597	-6.0114
7839.312500	82.476311	-6.0311
7896.119629	82.531715	-6.1006
7953.337891	82.579391	-6.1929
8010.971191	82.619804	-6.2885
8069.021973	82.647858	-6.3438
8127.493164	82.678810	-6.4047
8186.388672	82.738373	-6.5189
8245.710938	82.790779	-6.6394
8305.461914	82.793831	-6.7430
8365.647461	82.790985	-6.8029
8426.267578	82.817818	-6.7589
8487.328125	82.857758	-6.6874
8548.831055	82.905853	-6.6453
8610.779297	82.961678	-6.6320
8673.176758	83.025337	-6.6691
8736.026367	83.090652	-6.7455
8799.331055	83.151184	-6.8702
8863.094727	83.207710	-7.0033
8927.320312	83.252876	-7.1002
8992.010742	83.304688	-7.1836
9057.170898	83.380051	-7.2380
9122.802734	83.475433	-7.3333
9188.910156	83.593124	-7.5056
9255.497070	83.732193	-7.8416
9322.566406	83.908363	-8.4636
9390.121094	84.074203	-9.3020
9458.166016	84.171501	-10.3291
9526.704102	84.246628	-11.5381
9595.738281	84.351212	-12.9462
9665.273438	84.413849	-14.4557
9735.311523	84.346825	-15.9569
9805.857422	84.247543	-17.5033
9876.915039	84.231857	-19.1391
9948.487305	84.161682	-20.7859
10020.578125	83.912651	-22.5333
10093.191406	83.553268	-23.9209
10166.331055	83.073059	-24.4581
10240.000000	82.588486	-24.3107
10314.203125	82.224632	-23.3669
10388.944336	81.948135	-21.9814
10464.226562	81.777763	-20.4606
10540.054688	81.678436	-18.8479
10616.432617	81.620911	-17.3053
10693.363281	81.605972	-15.7790
10770.852539	81.614761	-14.2278
10848.902344	81.677475	-12.7705
10927.517578	81.838196	-11.4997
11006.703125	82.037880	-10.4559
11086.461914	82.227257	-9.7504
11166.798828	82.418930	-9.2632
11247.718750	82.598259	-8.8673
11329.223633	82.798882	-8.6912
11411.320312	83.073639	-8.8098
11494.011719	83.351555	-9.2626
11577.301758	83.582878	-10.2068
11661.195312	83.754257	-11.3643
11745.697266	83.809151	-12.5068
11830.811523	83.827911	-13.6331
11916.542969	83.883430	-14.6032
12002.894531	83.944649	-15.6091
12089.873047	84.020325	-16.8469
12177.480469	84.061928	-18.1714
12265.723633	83.999840	-19.5022
12354.606445	83.904533	-20.8329
12444.132812	83.849174	-22.1357
12534.308594	83.759644	-23.3953
12625.136719	83.571541	-24.6532
12716.624023	83.325424	-25.7122
12808.773438	83.029198	-26.3563
12901.591797	82.718758	-26.6790
12995.082031	82.453812	-26.7562
13089.250000	82.171516	-26.4319
13184.099609	81.770592	-25.4913
13279.636719	81.422508	-24.1807
13375.867188	81.328613	-22.6075
13472.793945	81.304123	-20.9792
13570.422852	81.218597	-19.7032
13668.759766	81.101822	-18.2915
13767.809570	80.893822	-16.3238
13867.577148	80.736603	-13.9819
13968.067383	80.780540	-11.2046
14069.285156	80.945724	-8.3147
14171.237305	81.188461	-5.5577
14273.927734	81.544731	-3.1121
14377.362305	82.070969	-1.2083
14481.546875	82.664787	0.0671
14586.486328	83.248451	0.4540
14692.185547	83.800949	0.2446
14798.651367	84.261528	-0.3983
14905.888672	84.672722	-1.3359
15013.902344	85.055321	-2.3671
15122.700195	85.415993	-3.5172
15232.285156	85.766571	-4.7516
15342.664062	86.111893	-6.0540
15453.843750	86.436462	-7.2766
15565.829102	86.812729	-8.7757
15678.625000	87.377701	-10.9080
15792.239258	87.925308	-13.5365
15906.675781	88.236206	-16.7079
16021.942383	88.478737	-20.2173
16138.043945	88.785149	-23.8277
16254.986328	89.053642	-27.6758
16372.777344	89.216057	-31.9003
16491.421875	89.297760	-36.2697
16610.923828	89.283600	-40.5398
16731.294922	89.229362	-44.8765
16852.535156	89.227211	-49.4210
16974.656250	89.154793	-54.0112
17097.662109	88.857857	-58.4822
17221.558594	88.517990	-62.9735
17346.353516	88.335701	-67.4934
17472.052734	88.109718	-72.2777
17598.662109	87.734993	-77.9180
17726.189453	87.113525	-83.3672
17854.640625	85.990875	-87.7885
17984.021484	84.730164	-91.1018
18114.341797	83.665054	-92.8156
18245.605469	82.642899	-93.3490
18377.820312	81.550690	-92.8002
18510.994141	80.590057	-91.6578
18645.132812	80.029533	-90.3350
18780.242188	79.565613	-89.1635
18916.332031	79.028297	-89.1870
19053.408203	78.272316	-88.6895
19191.476562	76.828369	-86.0034
19330.546875	75.495171	-81.9587
19470.623047	75.130852	-76.3697
19611.714844	75.120529	-70.6714
19753.830078	75.107140	-66.5133
19896.974609	75.141739	-63.1038
