* Measurement data measured by REW V5.20 Beta 53
* Source: C:\Users\Napie\Music\REW\Top Speakers\New Folder\10-On Axis.txt
* Format: Comma/Tab/Space delimited data
* Dated: May 26, 2020 3:16:32 PM
* REW Settings:
*  C-weighting compensation: Off
*  Target level: 75.0 dB
* Note: ; Measurement imported from C:\Users\Napie\Music\REW\Top Speakers\New Folder\10-On Axis.txt Format: Comma/Tab/Space delimited data 623 values loaded, 5 Hz to 39,792 Hz log spaced 
* Measurement: 10-On Axis
* Smoothing: None
* Frequency Step: 1/96 octave
* Start Frequency: 20.000 Hz
*
* Freq(Hz)	SPL(dB)	Phase(degrees)
20.000000	54.927692	-8.5501
20.144928	55.250141	-9.5261
20.290907	55.572716	-10.5341
20.437943	55.895763	-11.5660
20.586044	56.218777	-12.6692
20.735220	56.553905	-13.9120
20.885475	56.863663	-15.2244
21.036821	57.116657	-16.6626
21.189262	57.306808	-17.9176
21.342808	57.375179	-18.6631
21.497467	57.448875	-19.0058
21.653246	57.655426	-18.8443
21.810154	57.935585	-18.4785
21.968201	58.290421	-18.2781
22.127390	58.665596	-17.9355
22.287735	58.922935	-17.0718
22.449242	59.314594	-16.2665
22.611917	60.165443	-15.8944
22.775772	61.120842	-16.1951
22.940815	61.876102	-17.6168
23.107054	62.604027	-19.9104
23.274498	63.456993	-23.1008
23.443153	64.194145	-26.8107
23.613033	64.513100	-30.6450
23.784142	64.747787	-34.6794
23.956491	65.263519	-38.9196
24.130091	65.667671	-43.1841
24.304947	65.566551	-47.4371
24.481071	65.325333	-51.2474
24.658470	65.227058	-54.0332
24.837156	65.128151	-56.2083
25.017136	64.966400	-58.0760
25.198421	64.778206	-59.3920
25.381020	64.559647	-59.9983
25.564941	64.370155	-59.9364
25.750195	64.259010	-59.1307
25.936790	64.252930	-57.7750
26.124741	64.363083	-55.7705
26.314051	64.685333	-53.9193
26.504732	65.460182	-53.1564
26.696796	66.266098	-52.9909
26.890253	66.592979	-53.2102
27.085112	66.942482	-53.9049
27.281382	67.821091	-55.0395
27.479073	68.709908	-56.7812
27.678198	69.152245	-59.5179
27.878765	69.462593	-62.5537
28.080786	69.839989	-65.2590
28.284271	70.178574	-67.8146
28.489231	70.391907	-70.1274
28.695675	70.618637	-72.3928
28.903616	71.028770	-74.7537
29.113064	71.443451	-77.2763
29.324028	71.709702	-80.1673
29.536524	71.917786	-83.1475
29.750557	72.113037	-85.9930
29.966141	72.278831	-88.7420
30.183289	72.398987	-91.3281
30.402010	72.516838	-93.8429
30.622314	72.690025	-96.3431
30.844217	72.859818	-98.8669
31.067726	72.980232	-101.5120
31.292856	73.069885	-104.1560
31.519617	73.118690	-106.6464
31.748020	73.166939	-109.1698
31.978081	73.296791	-111.9236
32.209808	73.372971	-114.7263
32.443211	73.251747	-117.5696
32.678310	73.039322	-120.1309
32.915108	72.790222	-122.0723
33.153625	72.517349	-123.4297
33.393871	72.229500	-124.0661
33.635857	71.993301	-124.1632
33.879597	71.888199	-123.7627
34.125103	71.884933	-123.1479
34.372387	71.987534	-122.5738
34.621464	72.174660	-122.1684
34.872345	72.442917	-122.1522
35.125042	72.742630	-122.5023
35.379574	73.032356	-123.3609
35.635948	73.283730	-124.4526
35.894180	73.420273	-125.5279
36.154285	73.544800	-126.6493
36.416275	73.767387	-127.7759
36.680161	73.990677	-128.9701
36.945961	74.132111	-130.2988
37.213688	74.255821	-131.7079
37.483353	74.424126	-133.1928
37.754974	74.560829	-134.6718
38.028561	74.585556	-136.1178
38.304131	74.572021	-137.3615
38.581699	74.556625	-138.1495
38.861279	74.571930	-138.7063
39.142883	74.684242	-139.1647
39.426529	74.828796	-139.5485
39.712231	74.939949	-139.9117
40.000000	75.085747	-140.2954
40.289856	75.330040	-140.7112
40.581814	75.620567	-141.3010
40.875885	75.916801	-142.1445
41.172089	76.246460	-143.4396
41.470440	76.691139	-145.5462
41.770950	77.049561	-148.0586
42.073643	77.079384	-150.8272
42.378525	76.983185	-153.4406
42.685616	76.890579	-155.3681
42.994934	76.781158	-156.8153
43.306492	76.654282	-157.7164
43.620308	76.579048	-158.3581
43.936401	76.671753	-159.0076
44.254780	76.790833	-159.6589
44.575470	76.802376	-160.4625
44.898483	76.798004	-161.2149
45.223835	76.825371	-161.6927
45.551544	76.883896	-162.1034
45.881630	77.001122	-162.5619
46.214108	77.139786	-163.1260
46.548996	77.284294	-163.9693
46.886307	77.396873	-164.8596
47.226067	77.401833	-165.6156
47.568283	77.396996	-166.2560
47.912983	77.476654	-166.6904
48.260181	77.576836	-167.0674
48.609894	77.669617	-167.5893
48.962143	77.739914	-168.0055
49.316940	77.723892	-168.0789
49.674313	77.739906	-167.9673
50.034271	77.917603	-167.6699
50.396843	78.160606	-167.4272
50.762039	78.415329	-167.5184
51.129883	78.681534	-167.8283
51.500389	78.944290	-168.3625
51.873581	79.194580	-169.0357
52.249481	79.409767	-169.7715
52.628101	79.615654	-170.5487
53.009464	79.834068	-171.3095
53.393593	80.054619	-172.0886
53.780506	80.273689	-172.9103
54.170223	80.492630	-173.7486
54.562763	80.711639	-174.6158
54.958145	80.930649	-175.4218
55.356396	81.109543	-175.9214
55.757530	81.368469	-176.5906
56.161572	81.909882	-177.8659
56.568542	82.448196	-179.6247
56.978462	82.700165	177.9725
57.391350	82.857758	175.3419
57.807232	83.045204	172.8711
58.226128	83.185814	170.4890
58.648056	83.220108	168.2212
59.073048	83.219009	166.1622
59.501114	83.227219	164.5032
59.932281	83.264885	162.9817
60.366577	83.389687	161.4311
60.804020	83.533760	159.7510
61.244629	83.663383	157.6740
61.688435	83.732948	155.5346
62.135452	83.647827	153.5560
62.585712	83.521225	151.8098
63.039234	83.442360	150.5227
63.496040	83.390060	149.4526
63.956161	83.381805	148.4329
64.419617	83.389977	147.4607
64.886421	83.389999	146.4622
65.356621	83.389999	145.4857
65.830215	83.389999	144.5557
66.307251	83.390007	143.6707
66.787743	83.389999	142.8325
67.271713	83.389992	142.0553
67.759193	83.388748	141.3441
68.250206	83.389992	140.7290
68.744774	83.385185	140.2849
69.242928	83.409927	139.8827
69.744690	83.518837	139.4270
70.250084	83.646759	138.8902
70.759148	83.736412	138.1841
71.271896	83.817848	137.3945
71.788361	83.911339	136.5522
72.308571	83.989876	135.7355
72.832550	84.008034	135.0661
73.360321	84.040894	134.4451
73.891922	84.173340	133.8582
74.427376	84.331696	133.1714
74.966705	84.474754	132.1711
75.509949	84.588829	131.0820
76.057121	84.622139	130.0779
76.608261	84.647934	129.1029
77.163399	84.748299	128.1571
77.722557	84.845833	127.2438
78.285767	84.863167	126.3670
78.853058	84.880943	125.5247
79.424461	84.976479	124.7407
80.000000	85.083801	123.9416
80.579712	85.151314	123.0435
81.163628	85.211891	122.0998
81.751770	85.293846	121.1123
82.344177	85.359901	120.1529
82.940880	85.359451	119.3078
83.541901	85.359978	118.5374
84.147285	85.432144	117.8502
84.757050	85.516838	117.1873
85.371231	85.566032	116.4791
85.989868	85.615875	115.7665
86.612984	85.695953	115.0692
87.240616	85.778847	114.3813
87.872803	85.838692	113.6946
88.509560	85.899872	113.0363
89.150940	85.974831	112.4789
89.796967	86.073761	111.8803
90.447670	86.236786	111.0716
91.103088	86.386742	110.2048
91.763260	86.419952	109.3859
92.428215	86.454887	108.5865
93.097992	86.605415	107.8753
93.772614	86.783646	107.0668
94.452133	86.942886	105.9213
95.136566	87.071785	104.6686
95.825966	87.123047	103.4579
96.520363	87.157921	102.2954
97.219788	87.229584	101.2833
97.924286	87.315811	100.2811
98.633881	87.422409	99.1468
99.348625	87.517838	97.9853
100.068542	87.554253	96.8553
100.793686	87.585907	95.7557
101.524078	87.661469	94.7364
102.259766	87.750763	93.7026
103.000778	87.838928	92.5749
103.747162	87.927834	91.3555
104.498962	88.024399	89.9894
105.256203	88.098900	88.5697
106.018929	88.109695	87.1551
106.787186	88.099030	85.7935
107.561012	88.098999	84.5715
108.340446	88.098999	83.4327
109.125526	88.097809	82.3459
109.916290	88.098991	81.3218
110.712791	88.098915	80.3962
111.515060	88.117928	79.4630
112.323143	88.195518	78.4125
113.137085	88.270882	77.2894
113.956924	88.280579	76.0691
114.782700	88.271034	74.8500
115.614464	88.268066	73.7536
116.452255	88.270988	72.6870
117.296112	88.292084	71.6097
118.146095	88.317947	70.4834
119.002228	88.348267	69.2177
119.864563	88.356026	67.9284
120.733154	88.299232	66.6808
121.608040	88.222160	65.5383
122.489258	88.152267	64.6292
123.376869	88.099098	63.8228
124.270905	88.091309	63.0405
125.171425	88.098984	62.2524
126.078468	88.098999	61.3841
126.992081	88.098999	60.4919
127.912323	88.089256	59.6591
128.839233	88.098946	58.7310
129.772842	88.189003	57.5400
130.713242	88.254936	56.2048
131.660431	88.187889	54.6962
132.614502	88.060417	53.2925
133.575485	87.889153	52.3410
134.543427	87.734245	51.6102
135.518387	87.685051	51.0379
136.500412	87.671005	50.4572
137.489548	87.661598	49.6008
138.485855	87.625153	48.7072
139.489380	87.493652	47.9122
140.500168	87.345314	47.2592
141.518295	87.244080	46.8805
142.543793	87.166168	46.6425
143.576721	87.107925	46.4563
144.617142	87.072060	46.3182
145.665100	87.056999	46.2173
146.720642	87.071915	46.0874
147.783844	87.128677	45.8989
148.854752	87.217735	45.5313
149.933411	87.354294	44.8119
151.019897	87.475754	43.8655
152.114243	87.504097	42.7323
153.216522	87.500031	41.4965
154.326797	87.511116	40.2628
155.445114	87.500061	39.0108
156.571533	87.440292	37.7184
157.706116	87.346245	36.4946
158.848923	87.215767	35.4482
160.000000	87.072342	34.5599
161.159424	86.941551	33.8535
162.327255	86.815277	33.3081
163.503540	86.681396	32.9580
164.688354	86.577187	32.6606
165.881760	86.563309	32.2799
167.083801	86.558044	31.8293
168.294571	86.487595	31.2059
169.514099	86.387268	30.6242
170.742462	86.248154	30.3245
171.979736	86.130241	30.1304
173.225967	86.113922	29.9938
174.481232	86.129951	29.7677
175.745605	86.145676	29.1989
177.019119	86.130096	28.5575
178.301880	85.999840	28.0946
179.593933	85.879234	27.6183
180.895340	85.928795	26.9924
182.206177	85.959023	26.2957
183.526520	85.783058	25.4661
184.856430	85.549538	24.7913
186.195984	85.351059	24.6167
187.545227	85.172394	24.7106
188.904266	85.032738	24.9670
190.273132	84.920250	25.3479
191.651932	84.826958	25.7959
193.040726	84.760147	26.2637
194.439575	84.738235	26.6534
195.848572	84.720070	27.0598
197.267761	84.646812	27.5468
198.697250	84.589081	28.1115
200.137085	84.605087	28.8474
201.587372	84.674774	29.5296
203.048157	84.815521	29.9405
204.519531	84.972549	30.1487
206.001556	85.079720	30.1483
207.494324	85.187721	29.9477
208.997925	85.346436	29.5516
210.512405	85.493698	28.9656
212.037857	85.573990	28.1525
213.574371	85.615944	27.2443
215.122025	85.630371	26.3538
216.680893	85.616074	25.5032
218.251053	85.571411	24.7393
219.832581	85.508209	24.1006
221.425583	85.427467	23.6779
223.030121	85.360138	23.3617
224.646286	85.350739	23.1014
226.274170	85.359962	22.8098
227.913849	85.370743	22.3260
229.565399	85.360069	21.8202
231.228928	85.274254	21.4315
232.904510	85.188225	21.0959
234.592224	85.182556	20.8291
236.292191	85.188004	20.5289
238.004456	85.167046	19.9995
239.729126	85.103241	19.5350
241.466309	84.926674	19.4100
243.216080	84.760353	19.4926
244.978516	84.738548	19.8002
246.753738	84.759918	20.1550
248.541809	84.755318	20.3537
250.342850	84.759964	20.4887
252.156937	84.791336	20.6009
253.984161	84.834885	20.6450
255.824646	84.882751	20.5848
257.678467	84.931885	20.4325
259.545685	84.980453	20.1697
261.426483	85.016930	19.8508
263.320862	85.022316	19.5167
265.229004	85.017014	19.1909
267.150970	85.016685	18.9205
269.086853	85.016998	18.6757
271.036774	85.018250	18.4446
273.000824	85.021988	18.2196
274.979095	85.031036	17.9905
276.971710	85.041969	17.7537
278.978760	85.051910	17.5007
281.000336	85.061974	17.2367
283.036591	85.072464	16.9642
285.087585	85.082970	16.6819
287.153442	85.093033	16.3894
289.234283	85.102974	16.0858
291.330200	85.112976	15.7710
293.441284	85.122978	15.4429
295.567688	85.132912	15.1006
297.709503	85.142975	14.7410
299.866821	85.153473	14.3629
302.039795	85.163971	13.9583
304.228485	85.175026	13.5214
306.433044	85.183983	13.0444
308.653595	85.189247	12.5194
310.890228	85.188011	11.9407
313.143066	85.183907	11.2711
315.412231	85.156113	10.5968
317.697845	85.073898	9.9698
320.000000	84.970322	9.4573
322.318848	84.859627	9.2014
324.654510	84.768227	9.0286
327.007080	84.755959	8.7773
329.376709	84.737114	8.5486
331.763519	84.610863	8.3794
334.167603	84.480370	8.3030
336.589142	84.434212	8.4267
339.028198	84.418022	8.5677
341.484924	84.412201	8.5360
343.959473	84.399071	8.4573
346.451935	84.344360	8.3712
348.962463	84.278183	8.3489
351.491211	84.210670	8.5258
354.038239	84.168076	8.7483
356.603760	84.200485	8.9098
359.187866	84.246872	9.0028
361.790680	84.251945	8.9500
364.412354	84.247025	8.8563
367.053040	84.238823	8.8519
369.712860	84.246933	8.7864
372.391968	84.319977	8.5219
375.090454	84.377907	8.1472
377.808533	84.335503	7.6512
380.546265	84.255257	7.1981
383.303864	84.168495	6.9904
386.081451	84.085213	6.9041
388.879150	84.037636	6.8627
391.697144	83.990166	6.9226
394.535522	83.888718	7.1780
397.394501	83.820099	7.4423
400.274170	83.903259	7.5443
403.174744	83.989807	7.5283
406.096313	83.929878	7.3456
409.039062	83.843262	7.1057
412.003113	83.839661	6.8682
414.988647	83.803238	6.7362
417.995850	83.604263	6.8120
421.024811	83.390617	7.1594
424.075714	83.288177	7.9609
427.148743	83.237099	8.9626
430.244049	83.215637	9.9733
433.361786	83.232880	10.9828
436.502106	83.295555	11.9392
439.665161	83.389671	12.7806
442.851166	83.519669	13.3565
446.060242	83.636703	13.8804
449.292572	83.649834	14.5527
452.548340	83.688759	15.2668
455.827698	83.882088	16.0929
459.130798	84.145096	16.6967
462.457855	84.457893	16.6849
465.809021	84.752174	16.2997
469.184448	84.926903	15.6206
472.584381	85.059608	14.7509
476.008911	85.213562	13.8135
479.458252	85.332710	12.8301
482.932617	85.363533	11.8367
486.432159	85.360039	10.9127
489.957031	85.361687	10.1781
493.507477	85.360008	9.5488
497.083618	85.360001	8.9828
500.685699	85.360001	8.4716
504.313873	85.360001	7.9969
507.968323	85.360008	7.5474
511.649292	85.364685	7.0861
515.356934	85.360039	6.6702
519.091370	85.322075	6.3473
522.852966	85.285103	6.1106
526.641724	85.280678	5.9912
530.458008	85.293930	5.9222
534.301941	85.317261	5.8640
538.173706	85.359825	5.7645
542.073547	85.441452	5.5346
546.001648	85.522758	5.2440
549.958191	85.547791	4.9598
553.943420	85.584824	4.6033
557.957520	85.711861	4.1378
562.000671	85.845589	3.5035
566.073181	85.920815	2.5748
570.175171	85.958931	1.5116
574.306885	85.961250	0.4115
578.468567	85.924202	-0.6604
582.660400	85.837547	-1.6201
586.882568	85.722420	-2.4265
591.135376	85.595825	-3.0172
595.419006	85.460457	-3.3723
599.733643	85.308105	-3.4025
604.079590	85.188316	-3.2527
608.456970	85.165611	-2.9901
612.866089	85.187881	-2.7606
617.307190	85.230850	-2.7725
621.780457	85.273888	-2.9083
626.286133	85.279381	-3.1366
630.824463	85.274025	-3.4041
635.395691	85.274002	-3.6400
640.000000	85.274002	-3.8662
644.637695	85.268631	-4.0599
649.309021	85.273956	-4.2861
654.014160	85.317024	-4.6022
658.753418	85.359879	-5.0094
663.527039	85.369072	-5.5548
668.335205	85.357079	-6.1579
673.178284	85.324829	-6.7509
678.056396	85.274200	-7.3420
682.969849	85.217682	-7.9672
687.918945	85.124405	-8.4766
692.903870	84.941490	-8.7368
697.924927	84.746643	-8.7314
702.982422	84.606613	-8.3425
708.076477	84.503296	-7.7424
713.207520	84.445457	-7.0671
718.375732	84.418060	-6.3118
723.581360	84.405190	-5.5304
728.824707	84.417908	-4.6791
734.106079	84.444931	-3.6577
739.425720	84.537506	-2.6871
744.783936	84.772789	-1.9126
750.180908	85.062927	-1.4668
755.617065	85.345741	-1.5715
761.092529	85.619041	-2.1053
766.607727	85.869797	-3.0721
772.162903	86.069412	-4.3132
777.758301	86.170883	-5.7041
783.394287	86.215919	-7.1439
789.071045	86.234436	-8.4975
794.789001	86.216133	-9.7438
800.548340	86.148529	-10.8126
806.349487	86.067284	-11.7181
812.192627	86.005508	-12.4085
818.078125	85.959129	-13.0129
824.006226	85.947723	-13.6605
829.977295	85.933083	-14.3018
835.991699	85.872124	-14.9491
842.049622	85.798264	-15.5430
848.151428	85.734489	-16.0245
854.297485	85.670242	-16.4038
860.488098	85.592766	-16.6500
866.723572	85.531166	-16.8274
873.004211	85.522301	-16.9749
879.330322	85.530952	-17.1383
885.702332	85.530998	-17.3940
892.120483	85.530998	-17.6899
898.585144	85.530998	-17.9982
905.096680	85.530998	-18.3208
911.655396	85.532745	-18.6644
918.261597	85.531006	-18.9879
924.915710	85.510750	-19.2333
931.618042	85.502983	-19.4572
938.368896	85.544983	-19.6838
945.168762	85.603767	-19.9539
952.017822	85.652359	-20.3208
958.916504	85.708755	-20.7711
965.865234	85.782761	-21.2737
972.864319	85.872643	-21.9342
979.914062	85.997238	-22.8710
987.014954	86.104668	-24.0173
994.167236	86.143013	-25.4083
1001.371399	86.130135	-26.8539
1008.627747	86.053741	-28.1663
1015.936646	85.953438	-29.3712
1023.298584	85.870499	-30.4096
1030.713867	85.788277	-31.3501
1038.182739	85.702705	-32.2493
1045.705933	85.616371	-33.0865
1053.283447	85.525452	-33.8470
1060.916016	85.445305	-34.5679
1068.603882	85.386688	-35.2192
1076.347412	85.360031	-35.9874
1084.147095	85.402321	-37.0198
1092.003296	85.444908	-38.4076
1099.916382	85.469688	-40.5082
1107.886841	85.360863	-42.6694
1115.915039	84.908028	-44.4105
1124.001343	84.373909	-45.5612
1132.146362	83.962929	-45.5784
1140.350342	83.647980	-45.1042
1148.613770	83.494667	-44.5489
1156.937134	83.426170	-44.0804
1165.320801	83.400398	-44.0612
1173.765137	83.377167	-44.3163
1182.270752	83.291870	-44.8280
1190.838013	83.175529	-45.4802
1199.467285	83.043411	-46.1746
1208.159180	82.879723	-46.8385
1216.913940	82.649506	-47.3181
1225.732178	82.424751	-47.7593
1234.614380	82.290756	-48.1713
1243.560913	82.174454	-48.8149
1252.572266	82.068504	-50.0538
1261.648926	81.859192	-51.5933
1270.791382	81.470901	-53.7774
1280.000000	80.780487	-55.0502
1289.275391	79.376320	-53.7037
1298.618042	78.044701	-50.5049
1308.028320	77.610199	-45.1061
1317.506836	77.567604	-39.1759
1327.054077	77.702721	-34.5076
1336.670410	77.944992	-30.4160
1346.356567	78.115501	-26.8641
1356.112793	78.328087	-23.6584
1365.939697	78.626915	-20.4084
1375.837891	79.045952	-17.6649
1385.807739	79.724625	-15.9984
1395.849854	80.391609	-14.9770
1405.964844	80.694580	-14.2830
1416.152954	81.007591	-14.1255
1426.415039	81.753891	-14.6920
1436.751465	82.446777	-15.7393
1447.162720	82.568382	-17.1434
1457.649414	82.619606	-18.7285
1468.212158	83.062691	-20.1539
1478.851440	83.513481	-21.7881
1489.567871	83.668892	-24.0397
1500.361816	83.732826	-26.4586
1511.234131	83.837128	-28.6797
1522.185059	83.903816	-30.8405
1533.215454	83.882576	-32.9982
1544.325806	83.818336	-35.0354
1555.516602	83.732819	-36.8040
1566.788574	83.647339	-38.4492
1578.142090	83.604721	-40.0536
1589.578003	83.562202	-41.6631
1601.096680	83.489548	-43.3831
1612.698975	83.390472	-45.1178
1624.385254	83.257637	-46.8346
1636.156250	83.094780	-48.4462
1648.012451	82.880745	-49.7825
1659.954590	82.682648	-51.0573
1671.983398	82.605270	-52.4451
1684.099243	82.516495	-53.9008
1696.302856	82.289070	-55.5105
1708.594971	82.009346	-57.0524
1720.976196	81.731819	-58.3563
1733.447144	81.428413	-59.3494
1746.008423	81.038048	-59.7845
1758.660645	80.712090	-60.0142
1771.404663	80.636566	-60.1788
1784.240967	80.650864	-60.6768
1797.170288	80.660858	-61.9644
1810.193359	80.647156	-64.0134
1823.310791	80.651535	-67.3529
1836.523193	80.398781	-70.7644
1849.831421	79.401726	-73.0479
1863.236084	78.330391	-74.6493
1876.737793	77.945328	-75.6757
1890.337524	77.509552	-75.9705
1904.035645	76.279076	-75.5682
1917.833008	75.004631	-73.9971
1931.730469	74.279732	-70.2329
1945.728638	73.860222	-65.9532
1959.828125	73.766998	-62.5208
1974.029907	73.784912	-59.8961
1988.334473	73.784142	-59.0806
2002.742798	73.526871	-58.2966
2017.255493	72.474365	-56.0133
2031.873291	71.394791	-52.4453
2046.597168	71.025589	-46.8899
2061.427734	70.942940	-40.5934
2076.365479	70.906754	-34.5417
2091.411865	71.083725	-28.8406
2106.566895	71.644135	-23.8683
2121.832031	72.345985	-19.7778
2137.207764	72.978455	-16.9772
2152.694824	73.610497	-15.0819
2168.294189	74.242188	-13.8215
2184.006592	74.874084	-13.2480
2199.832764	75.506699	-13.2954
2215.773682	76.139359	-14.0582
2231.830078	76.771431	-15.4911
2248.002686	77.403320	-17.9470
2264.292725	78.125084	-21.9301
2280.700684	78.668289	-26.9512
2297.227539	78.741386	-32.9764
2313.874268	78.496613	-39.1331
2330.641602	77.965805	-44.5614
2347.530273	77.226585	-49.1721
2364.541504	76.342751	-52.5233
2381.676025	75.387474	-54.8237
2398.934570	74.466728	-56.0753
2416.318359	73.546135	-56.4650
2433.827881	72.625961	-56.1891
2451.464355	71.705841	-55.2253
2469.228760	70.785362	-53.6294
2487.121826	69.864952	-51.3602
2505.144531	68.945084	-48.4291
2523.297852	68.025192	-44.7336
2541.582764	67.104698	-40.2766
2560.000000	66.184135	-34.7535
2578.550781	65.220306	-27.9500
2597.236084	64.343765	-19.5981
2616.056641	63.538437	-8.7642
2635.013672	63.202999	2.7775
2654.108154	63.973591	13.7601
2673.340820	65.131592	23.5445
2692.713135	66.099556	30.7000
2712.225586	67.066406	36.3430
2731.879395	68.033394	41.1425
2751.675781	69.000458	45.0526
2771.615479	69.967567	48.2495
2791.699707	70.934654	50.7195
2811.929688	71.901558	52.5538
2832.305908	72.868462	53.6130
2852.830078	73.885414	53.6365
2873.502930	74.803360	53.0724
2894.325439	75.406784	52.2636
2915.298828	75.939499	51.2787
2936.424316	76.609413	50.5052
2957.702881	77.316818	49.3257
2979.135742	78.100075	47.0202
3000.723633	78.747704	44.2625
3022.468262	78.964531	41.3667
3044.370117	79.034798	38.7161
3066.430908	79.156418	36.9965
3088.651611	79.303246	35.6188
3111.033203	79.554825	34.1509
3133.577148	79.788055	32.7852
3156.284180	79.852348	31.5543
3179.156006	79.905632	30.5184
3202.193359	80.075714	29.8696
3225.397949	80.308754	29.2453
3248.770508	80.602806	28.3595
3272.312500	80.926514	27.1642
3296.024902	81.260094	25.4878
3319.909180	81.566696	23.4194
3343.966797	81.799118	20.9799
3368.198486	81.968353	18.2069
3392.605713	82.112793	14.9479
3417.189941	82.104530	11.7917
3441.952393	81.712524	9.3658
3466.894287	81.279739	7.4177
3492.016846	81.188217	5.9559
3517.321289	81.101639	4.8098
3542.809326	80.734856	3.6471
3568.481934	80.302017	2.9576
3594.340576	79.917229	3.2815
3620.386719	79.605240	4.1528
3646.621582	79.453239	5.3277
3673.046387	79.386169	6.6626
3699.662842	79.351685	7.8990
3726.472168	79.365822	9.1402
3753.475586	79.400719	10.5538
3780.675049	79.537086	11.6949
3808.071289	79.929794	12.1390
3835.666016	80.331314	11.9813
3863.460938	80.508820	10.9740
3891.457275	80.564995	9.7280
3919.656250	80.499527	8.8419
3948.059814	80.394501	8.1221
3976.668945	80.375336	7.5066
4005.485596	80.313538	7.1816
4034.510986	80.045013	7.3643
4063.746582	79.795952	7.9066
4093.194336	79.805031	8.8225
4122.855469	79.879608	9.8380
4152.730957	79.886887	10.5497
4182.823730	79.877083	11.3527
4213.133789	79.818428	12.6235
4243.664062	79.827667	14.0312
4274.415527	80.059502	15.4450
4305.389648	80.371399	16.6262
4336.588379	80.669388	17.2111
4368.013184	80.956696	17.4406
4399.665527	81.213371	17.3278
4431.547363	81.417168	17.2032
4463.660156	81.467079	17.5594
4496.005371	81.578056	17.9325
4528.585449	82.032921	18.0747
4561.401367	82.534752	17.8115
4594.455078	82.846069	16.6650
4627.748535	83.059174	15.2976
4661.283203	83.142891	14.3489
4695.060547	83.236351	13.4326
4729.083008	83.542763	12.3654
4763.352051	83.842781	11.1571
4797.869141	83.932396	9.6510
4832.636719	83.959915	8.1671
4867.655762	84.012848	7.0557
4902.928711	84.076645	6.0796
4938.457520	84.173569	5.1199
4974.243652	84.278503	4.1596
5010.289062	84.376740	3.0906
5046.595703	84.458649	2.0698
5083.165527	84.475937	1.2984
5120.000000	84.529533	0.5430
5157.101562	84.751808	-0.3342
5194.472168	85.003784	-1.4278
5232.113281	85.165642	-2.9146
5270.027344	85.306297	-4.6854
5308.216309	85.482498	-6.7101
5346.681641	85.615517	-8.9245
5385.426270	85.627014	-11.3185
5424.451172	85.569427	-13.7013
5463.758789	85.466873	-15.8663
5503.351562	85.328766	-17.8466
5543.230957	85.170403	-19.5989
5583.399414	84.997887	-21.1508
5623.859375	84.824944	-22.5320
5664.611816	84.643936	-23.6927
5705.660156	84.425919	-24.5048
5747.005859	84.247726	-25.2292
5788.650879	84.233437	-26.1232
5830.597656	84.215271	-27.0800
5872.848633	84.015678	-28.1345
5915.405762	83.781174	-29.1123
5958.271484	83.624886	-29.8001
6001.447266	83.476784	-30.3444
6044.936523	83.296318	-30.8743
6088.740234	83.103989	-31.2378
6132.861816	82.887032	-31.2656
6177.303223	82.705742	-31.1320
6222.066406	82.640694	-30.9156
6267.154297	82.620056	-30.7396
6312.568359	82.594307	-30.7821
6358.312012	82.574089	-30.9568
6404.386719	82.556526	-31.2413
6450.795898	82.534134	-31.6179
6497.541016	82.499954	-32.0844
6544.625000	82.449303	-32.5726
6592.049805	82.368759	-33.0270
6639.818359	82.277481	-33.4073
6687.933594	82.181770	-33.6145
6736.396973	82.107292	-33.7692
6785.211426	82.095863	-33.9411
6834.379883	82.105934	-34.1884
6883.904785	82.105942	-34.6063
6933.788574	82.106003	-35.1538
6984.033691	82.106003	-35.8013
7034.642578	82.106003	-36.6063
7085.618652	82.110245	-37.5684
7136.963867	82.106064	-38.8335
7188.681152	82.135887	-40.7162
7240.773438	82.039017	-42.7159
7293.243164	81.615807	-44.6864
7346.092773	81.020393	-45.8660
7399.325684	80.240646	-45.1364
7452.944336	79.581688	-43.4048
7506.951172	79.465965	-41.0422
7561.350098	79.537415	-38.5784
7616.142578	79.531113	-36.7612
7671.332031	79.579529	-35.3107
7726.921875	79.758217	-34.1282
7782.914551	79.982803	-33.3973
7839.312500	80.210335	-33.3815
7896.119629	80.388275	-33.7523
7953.337891	80.420570	-34.3166
8010.971191	80.394211	-34.9219
8069.021973	80.366104	-35.2990
8127.493164	80.334152	-35.6064
8186.388672	80.324867	-35.9194
8245.710938	80.308128	-36.2284
8305.461914	80.261253	-36.5896
8365.647461	80.187454	-36.8798
8426.267578	80.074402	-37.0149
8487.328125	79.946693	-36.9292
8548.831055	79.813087	-36.5047
8610.779297	79.709419	-35.8143
8673.176758	79.660965	-34.7589
8736.026367	79.708412	-33.7379
8799.331055	79.958603	-33.1483
8863.094727	80.239616	-32.9093
8927.320312	80.376595	-33.1604
8992.010742	80.478477	-33.6283
9057.170898	80.600266	-34.0184
9122.802734	80.735237	-34.5239
9188.910156	80.906563	-35.2443
9255.497070	81.078110	-36.1763
9322.566406	81.213943	-37.3499
9390.121094	81.335381	-38.7639
9458.166016	81.464432	-40.4233
9526.704102	81.564590	-42.3392
9595.738281	81.610229	-44.5679
9665.273438	81.589325	-46.9786
9735.311523	81.480583	-49.4987
9805.857422	81.286331	-52.0083
9876.915039	81.011131	-54.4659
9948.487305	80.627472	-56.5658
10020.578125	80.066765	-58.0111
10093.191406	79.455383	-58.7273
10166.331055	78.897507	-58.4671
10240.000000	78.395515	-57.4553
10314.203125	77.963036	-55.7080
10388.944336	77.668007	-53.6116
10464.226562	77.612633	-51.4214
10540.054688	77.709038	-49.5526
10616.432617	77.939255	-48.5720
10693.363281	78.193588	-48.2866
10770.852539	78.335480	-48.7308
10848.902344	78.424637	-49.7719
10927.517578	78.519615	-51.4015
11006.703125	78.492622	-53.2786
11086.461914	78.158424	-54.9666
11166.798828	77.742302	-56.7357
11247.718750	77.597847	-59.1555
11329.223633	77.166557	-60.9141
11411.320312	75.728783	-61.1907
11494.011719	74.097565	-59.0459
11577.301758	72.838341	-52.6691
11661.195312	72.006088	-43.8382
11745.697266	71.771957	-32.8135
11830.811523	72.340370	-22.3998
11916.542969	74.347000	-15.4869
12002.894531	76.676460	-12.1362
12089.873047	78.341026	-14.2559
12177.480469	79.554527	-19.1522
12265.723633	80.129524	-24.8813
12354.606445	80.307861	-31.0082
12444.132812	80.260963	-36.3372
12534.308594	80.020706	-41.2406
12625.136719	79.739319	-45.9440
12716.624023	79.224525	-49.7233
12808.773438	78.167435	-51.8087
12901.591797	77.060860	-52.5386
12995.082031	76.468369	-52.0461
13089.250000	75.889275	-50.1978
13184.099609	74.781311	-46.8331
13279.636719	73.805161	-42.1639
13375.867188	73.612473	-36.1124
13472.793945	73.714951	-29.3850
13570.422852	73.680725	-22.4624
13668.759766	73.964821	-15.9572
13767.809570	75.085648	-10.4641
13867.577148	76.446854	-6.5207
13968.067383	77.577667	-5.2329
14069.285156	78.590515	-5.4940
14171.237305	79.439766	-6.6558
14273.927734	80.143585	-8.3997
14377.362305	80.666229	-10.1620
14481.546875	81.123619	-12.0389
14586.486328	81.647789	-13.8887
14692.185547	82.158127	-15.8739
14798.651367	82.618706	-18.2067
14905.888672	83.022850	-20.6022
15013.902344	83.317337	-22.8439
15122.700195	83.606247	-24.9267
15232.285156	83.943192	-26.4583
15342.664062	84.429398	-28.3858
15453.843750	85.339523	-31.6791
15565.829102	86.210892	-35.9127
15678.625000	86.538094	-41.1673
15792.239258	86.704231	-46.8597
15906.675781	86.980759	-52.2614
16021.942383	87.217911	-57.8746
16138.043945	87.379913	-64.1776
16254.986328	87.386559	-70.5435
16372.777344	87.047806	-76.3972
16491.421875	86.655006	-82.0342
16610.923828	86.541138	-87.4728
16731.294922	86.404144	-92.9883
16852.535156	86.032661	-99.1638
16974.656250	85.473000	-105.1008
17097.662109	84.607033	-109.9237
17221.558594	83.722046	-114.1062
17346.353516	83.154533	-117.6236
17472.052734	82.650101	-121.1258
17598.662109	82.131645	-125.7480
17726.189453	81.390305	-130.0327
17854.640625	79.932053	-132.5323
17984.021484	78.528938	-134.2823
18114.341797	78.119377	-135.7860
18245.605469	77.743073	-137.2531
18377.820312	76.560402	-139.6949
18510.994141	75.100105	-141.2111
18645.132812	73.493111	-139.5500
18780.242188	72.125328	-136.6953
18916.332031	71.693428	-133.8682
19053.408203	71.404106	-131.2092
19191.476562	70.572510	-129.8697
19330.546875	69.535164	-128.0187
19470.623047	68.267349	-123.7576
19611.714844	67.191078	-118.3687
19753.830078	66.879868	-112.2227
19896.974609	66.865616	-106.2224
