* Measurement data measured by REW V5.20 Beta 53
* Source: C:\Users\Napie\Music\REW\Top Speakers\New Folder\4-SP.txt
* Format: Comma/Tab/Space delimited data
* Dated: May 26, 2020 2:53:21 PM
* REW Settings:
*  C-weighting compensation: Off
*  Target level: 75.0 dB
* Note: ; Measurement imported from C:\Users\Napie\Music\REW\Top Speakers\New Folder\4-SP.txt Format: Comma/Tab/Space delimited data 623 values loaded, 5 Hz to 39,792 Hz log spaced 
* Measurement: 4-SP
* Smoothing: None
* Frequency Step: 1/96 octave
* Start Frequency: 20.000 Hz
*
* Freq(Hz)	SPL(dB)	Phase(degrees)
20.000000	59.718845	-164.9767
20.144928	59.878349	-165.2935
20.290907	60.037857	-165.6187
20.437943	60.197819	-165.9503
20.586044	60.357887	-166.2938
20.735220	60.517925	-166.6495
20.885475	60.677814	-167.0315
21.036821	60.842304	-167.4710
21.189262	60.996819	-167.9174
21.342808	61.118793	-168.3244
21.497467	61.236847	-168.7106
21.653246	61.385555	-169.1016
21.810154	61.524830	-169.4306
21.968201	61.598785	-169.6042
22.127390	61.688873	-169.7269
22.287735	61.892677	-169.8676
22.449242	62.106842	-170.0408
22.611917	62.236008	-170.3311
22.775772	62.352856	-170.5977
22.940815	62.494167	-170.6384
23.107054	62.672733	-170.7218
23.274498	62.952236	-171.1083
23.443153	63.216679	-171.6232
23.613033	63.327217	-172.2110
23.784142	63.414917	-172.7725
23.956491	63.585262	-173.1243
24.130091	63.777775	-173.4646
24.304947	63.966831	-173.9587
24.481071	64.152756	-174.5242
24.658470	64.320015	-175.1084
24.837156	64.490753	-175.7870
25.017136	64.708313	-176.6773
25.198421	64.893837	-177.6031
25.381020	64.934860	-178.3918
25.564941	64.974930	-179.1473
25.750195	65.170021	-179.8804
25.936790	65.371773	179.3021
26.124741	65.463226	178.2087
26.314051	65.504959	177.0826
26.504732	65.524185	176.0801
26.696796	65.505051	175.2728
26.890253	65.418114	174.8018
27.085112	65.331093	174.6151
27.281382	65.314690	174.7437
27.479073	65.330956	175.0795
27.678198	65.352631	175.5551
27.878765	65.417870	176.0782
28.080786	65.575874	176.5466
28.284271	65.766724	176.9216
28.489231	65.935883	177.1212
28.695675	66.115738	177.1730
28.903616	66.333244	177.0741
29.113064	66.550705	176.8344
29.324028	66.727592	176.4698
29.536524	66.898796	175.9607
29.750557	67.107216	175.2720
29.966141	67.288818	174.4659
30.183289	67.379799	173.5372
30.402010	67.421974	172.6540
30.622314	67.430313	171.9956
30.844217	67.422012	171.5244
31.067726	67.416557	171.2955
31.292856	67.421974	171.2100
31.519617	67.465431	171.1701
31.748020	67.508957	171.2278
31.978081	67.509010	171.3816
32.209808	67.508987	171.6965
32.443211	67.530701	172.3040
32.678310	67.595879	173.0041
32.915108	67.755020	173.6504
33.153625	67.943764	174.2114
33.393871	68.111519	174.5391
33.635857	68.266777	174.8365
33.879597	68.372025	175.3433
34.125103	68.514755	175.8044
34.372387	68.825844	176.0208
34.621464	69.138573	176.0621
34.872345	69.289337	175.8345
35.125042	69.397881	175.6312
35.379574	69.513466	175.8754
35.635948	69.685745	176.0859
35.894180	70.053802	175.8358
36.154285	70.398567	175.3798
36.416275	70.471573	174.7661
36.680161	70.497940	174.1898
36.945961	70.657982	173.9569
37.213688	70.840729	173.7843
37.483353	70.987419	173.4452
37.754974	71.119812	173.0726
38.028561	71.241341	172.7189
38.304131	71.348869	172.4014
38.581699	71.439438	172.1361
38.861279	71.515892	171.9792
39.142883	71.569984	172.0093
39.426529	71.631912	172.1747
39.712231	71.736031	172.4736
40.000000	71.861794	172.8344
40.289856	72.003654	173.1567
40.581814	72.150795	173.5254
40.875885	72.271317	174.0358
41.172089	72.422722	174.5582
41.470440	72.681488	174.9934
41.770950	72.959549	175.3445
42.073643	73.167175	175.5804
42.378525	73.384674	175.7049
42.685616	73.687691	175.7372
42.994934	74.001564	175.6003
43.306492	74.270691	175.1823
43.620308	74.512657	174.6060
43.936401	74.733749	173.9131
44.254780	74.912766	173.2370
44.575470	75.006554	172.7372
44.898483	75.086861	172.3774
45.223835	75.229767	172.1940
45.551544	75.379784	172.1281
45.881630	75.491402	172.1328
46.214108	75.609802	172.2078
46.548996	75.781723	172.3305
46.886307	75.957733	172.5206
47.226067	76.088295	172.7660
47.568283	76.219772	173.1403
47.912983	76.381630	173.7350
48.260181	76.575638	174.4856
48.609894	76.796097	175.4558
48.962143	77.094467	176.3508
49.316940	77.569580	176.8814
49.674313	78.074211	177.0919
50.034271	78.460548	176.8803
50.396843	78.827438	176.3979
50.762039	79.248947	175.7702
51.129883	79.653328	174.9745
51.500389	79.983582	173.9567
51.873581	80.268539	172.9347
52.249481	80.493927	172.1758
52.628101	80.732567	171.4811
53.009464	81.088432	170.7508
53.393593	81.454399	169.9515
53.780506	81.737427	168.9631
54.170223	81.997581	167.9467
54.562763	82.268318	167.0294
54.958145	82.537575	166.1932
55.356396	82.792259	165.4662
55.757530	83.068512	164.8370
56.161572	83.373367	164.5018
56.568542	83.781212	163.8665
56.978462	84.481567	162.2672
57.391350	85.136963	160.1035
57.807232	85.372345	157.3908
58.226128	85.485832	154.6236
58.648056	85.682243	152.4126
59.073048	85.871696	150.4281
59.501114	86.022751	148.5016
59.932281	86.162758	146.7549
60.366577	86.282188	145.3803
60.804020	86.460609	144.0015
61.244629	86.839371	142.2931
61.688435	87.224388	140.2897
62.135452	87.441139	137.7496
62.585712	87.569847	135.1793
63.039234	87.589417	133.1400
63.496040	87.630859	131.2321
63.956161	87.886642	129.2596
64.419617	88.152580	127.1659
64.886421	88.252762	124.7099
65.356621	88.291962	122.2493
65.830215	88.307785	120.1391
66.307251	88.327942	118.1497
66.787743	88.417084	116.1624
67.271713	88.501877	114.1965
67.759193	88.512878	112.1907
68.250206	88.502022	110.2703
68.744774	88.491127	108.6056
69.242928	88.501945	107.0017
69.744690	88.588837	105.3084
70.250084	88.675858	103.5604
70.759148	88.686882	101.7063
71.271896	88.676041	99.8553
71.788361	88.676003	98.1256
72.308571	88.676003	96.4411
72.832550	88.676003	94.7737
73.360321	88.676010	93.0971
73.891922	88.685310	91.3467
74.427376	88.676048	89.6113
74.966705	88.603210	87.9777
75.509949	88.527130	86.3879
76.057121	88.518822	84.8091
76.608261	88.502060	83.2511
77.163399	88.405289	81.6736
77.722557	88.284241	80.1948
78.285767	88.172470	78.9450
78.853058	88.066200	77.8480
79.424461	87.968483	76.9001
80.000000	87.892120	76.0126
80.579712	87.865601	75.0840
81.163628	87.845047	74.1488
81.751770	87.778702	73.2198
82.344177	87.718094	72.2620
82.940880	87.723236	71.2265
83.541901	87.718048	70.1681
84.147285	87.621346	69.0996
84.757050	87.507217	68.0988
85.371231	87.431702	67.2881
85.989868	87.369118	66.5475
86.612984	87.316040	65.7769
87.240616	87.261124	65.0364
87.872803	87.182846	64.3584
88.509560	87.108147	63.7262
89.150940	87.064949	63.1396
89.796967	87.029068	62.5821
90.447670	86.976662	62.0515
91.103088	86.934067	61.5052
91.763260	86.937798	60.8789
92.428215	86.934036	60.2353
93.097992	86.862793	59.5896
93.772614	86.778160	59.0210
94.452133	86.715355	58.6544
95.136566	86.672066	58.3686
95.825966	86.665367	58.0772
96.520363	86.671989	57.7986
97.219788	86.661507	57.5449
97.924286	86.671936	57.2487
98.633881	86.749947	56.8564
99.348625	86.839821	56.3382
100.068542	86.897392	55.5987
100.793686	86.933937	54.7801
101.524078	86.933632	54.0231
102.259766	86.933983	53.2380
103.000778	86.990120	52.3617
103.747162	87.033943	51.4518
104.498962	86.990349	50.5329
105.256203	86.934097	49.6416
106.018929	86.927742	48.8736
106.787186	86.933983	48.0766
107.561012	86.950363	47.0630
108.340446	86.934067	46.0326
109.125526	86.814102	45.1034
109.916290	86.672249	44.3372
110.712791	86.568802	43.9079
111.515060	86.498100	43.5976
112.323143	86.487122	43.2601
113.137085	86.497971	42.8510
113.956924	86.508873	42.2176
114.782700	86.498077	41.5387
115.614464	86.411209	40.9661
116.452255	86.324135	40.4309
117.296112	86.323975	39.9130
118.146095	86.324028	39.4160
119.002228	86.237343	38.9357
119.864563	86.150192	38.4762
120.733154	86.148857	38.0394
121.608040	86.148033	37.6278
122.489258	86.062080	37.2359
123.376869	85.976166	36.8898
124.270905	85.965240	36.6544
125.171425	85.975975	36.4085
126.078468	85.975998	36.0341
126.992081	85.975998	35.5830
127.912323	85.979118	35.0668
128.839233	85.976013	34.4882
129.772842	85.958862	33.8441
130.713242	85.926079	33.1644
131.660431	85.878975	32.4348
132.614502	85.801262	31.7836
133.575485	85.654793	31.3454
134.543427	85.506248	31.0883
135.518387	85.417686	31.0930
136.500412	85.366058	31.1549
137.489548	85.368111	31.0484
138.485855	85.366035	30.9153
139.489380	85.279205	30.8192
140.500168	85.192162	30.7720
141.518295	85.181114	30.8448
142.543793	85.191963	30.9229
143.576721	85.192001	30.8902
144.617142	85.192001	30.8192
145.665100	85.192001	30.7377
146.720642	85.191994	30.6652
147.783844	85.184509	30.6547
148.854752	85.191948	30.6331
149.933411	85.248459	30.5397
151.019897	85.311859	30.3884
152.114243	85.335556	30.1852
153.216522	85.365883	29.8940
154.326797	85.456139	29.4735
155.445114	85.539848	28.9453
156.571533	85.550888	28.2956
157.706116	85.540031	27.5896
158.848923	85.550865	26.8776
160.000000	85.540062	26.1915
161.159424	85.464088	25.5510
162.327255	85.366226	25.0449
163.503540	85.268318	24.8209
164.688354	85.192131	24.7241
165.881760	85.181114	24.6652
167.083801	85.191956	24.5933
168.294571	85.192001	24.4083
169.514099	85.192009	24.1696
170.742462	85.192001	23.9074
171.979736	85.192001	23.6108
173.225967	85.192001	23.2902
174.481232	85.192001	22.9120
175.745605	85.205307	22.3979
177.019119	85.192085	21.8911
178.301880	85.088837	21.5141
179.593933	84.979240	21.2515
180.895340	84.941559	21.1835
182.206177	84.930016	21.1451
183.526520	84.929558	20.9680
184.856430	84.925034	20.7405
186.195984	84.889221	20.4863
187.545227	84.843109	20.2346
188.904266	84.805351	20.0044
190.273132	84.756142	19.8502
191.651932	84.663803	19.8540
193.040726	84.582176	19.9526
194.439575	84.571114	20.1372
195.848572	84.581963	20.3265
197.267761	84.582001	20.4119
198.697250	84.582001	20.4649
200.137085	84.582001	20.5143
201.587372	84.581993	20.5828
203.048157	84.572945	20.7312
204.519531	84.581932	20.8737
206.001556	84.647049	20.9615
207.494324	84.726807	20.9432
208.997925	84.794922	20.7054
210.512405	84.842926	20.3848
212.037857	84.841278	20.0781
213.574371	84.827034	19.7947
215.122025	84.833984	19.5873
216.680893	84.842979	19.4214
218.251053	84.838570	19.2941
219.832581	84.842972	19.1614
221.425583	84.886375	18.9742
223.030121	84.929909	18.7456
224.646286	84.935440	18.4534
226.274170	84.930016	18.1547
227.913849	84.930000	17.9109
229.565399	84.930008	17.6885
231.228928	84.930000	17.4736
232.904510	84.930000	17.2686
234.592224	84.930000	17.0714
236.292191	84.930000	16.8815
238.004456	84.930000	16.6975
239.729126	84.930000	16.5215
241.466309	84.930000	16.3545
243.216080	84.929993	16.1984
244.978516	84.930000	16.0504
246.753738	84.930008	15.9253
248.541809	84.924942	15.8543
250.342850	84.929962	15.7853
252.156937	84.970009	15.6632
253.984161	85.010910	15.5264
255.824646	85.008133	15.4189
257.678467	85.016937	15.2695
259.545685	85.104637	15.0190
261.426483	85.191826	14.6730
263.320862	85.202950	14.1883
265.229004	85.192039	13.6525
267.150970	85.202927	13.1223
269.086853	85.192085	12.6482
271.036774	85.108017	12.2992
273.000824	85.017235	12.0764
274.979095	84.982315	12.0337
276.971710	84.965027	12.0818
278.978760	84.941994	12.1382
281.000336	84.930016	12.2347
283.036591	84.932205	12.4286
285.087585	84.966843	12.5628
287.153442	85.081467	12.4669
289.234283	85.191757	12.2338
291.330200	85.204140	11.8596
293.441284	85.192039	11.4670
295.567688	85.203957	11.2134
297.709503	85.222946	10.9935
299.866821	85.247414	10.7625
302.039795	85.278893	10.4939
304.228485	85.325867	10.1331
306.433044	85.365906	9.7212
308.653595	85.371437	9.2739
310.890228	85.366013	8.8142
313.143066	85.370995	8.3634
315.412231	85.366035	7.9431
317.697845	85.327805	7.5796
320.000000	85.286125	7.2797
322.318848	85.265854	7.0856
324.654510	85.258995	6.9175
327.007080	85.270454	6.7062
329.376709	85.285950	6.4618
331.763519	85.290932	6.1625
334.167603	85.291008	5.8370
336.589142	85.287949	5.5034
339.028198	85.279045	5.1729
341.484924	85.260124	4.8595
343.959473	85.237068	4.5737
346.451935	85.211945	4.3463
348.962463	85.192039	4.1317
351.491211	85.193741	3.8876
354.038239	85.192039	3.6337
356.603760	85.165924	3.3245
359.187866	85.119179	3.1144
361.790680	85.017342	3.2288
364.412354	84.954071	3.4135
367.053040	85.062302	3.4969
369.712860	85.191666	3.4514
372.391968	85.206886	3.1176
375.090454	85.192055	2.7191
377.808533	85.192001	2.4507
380.546265	85.192001	2.2445
383.303864	85.181137	2.1372
386.081451	85.191917	2.0075
388.879150	85.278717	1.7339
391.697144	85.365776	1.3523
394.535522	85.376884	0.8223
397.394501	85.366043	0.2537
400.274170	85.365997	-0.2279
403.174744	85.365997	-0.7075
406.096313	85.371429	-1.2442
409.039062	85.366043	-1.7923
412.003113	85.328072	-2.3300
414.988647	85.279167	-2.8434
417.995850	85.241135	-3.3226
421.024811	85.192184	-3.7338
424.075714	85.104790	-4.0399
427.148743	85.017258	-4.2415
430.244049	84.962700	-4.2921
433.361786	84.930069	-4.2960
436.502106	84.924561	-4.3448
439.665161	84.929977	-4.4316
442.851166	84.930000	-4.5894
446.060242	84.929993	-4.7893
449.292572	84.930000	-5.0127
452.548340	84.930000	-5.2632
455.827698	84.930000	-5.5361
459.130798	84.930000	-5.8390
462.457855	84.931870	-6.1803
465.809021	84.930016	-6.5527
469.184448	84.920479	-6.9707
472.584381	84.900085	-7.3778
476.008911	84.852905	-7.6989
479.458252	84.813095	-8.0031
482.932617	84.822510	-8.3115
486.432159	84.842941	-8.6946
489.957031	84.853554	-9.2677
493.507477	84.843071	-9.9180
497.083618	84.786301	-10.5960
500.685699	84.704308	-11.2241
504.313873	84.598022	-11.6541
507.968323	84.503250	-12.0468
511.649292	84.484673	-12.5253
515.356934	84.457161	-13.0592
519.091370	84.343086	-13.7356
522.852966	84.182587	-14.3243
526.641724	83.973526	-14.5787
530.458008	83.766632	-14.6321
534.301941	83.632164	-14.5204
538.173706	83.510414	-14.2939
542.073547	83.355049	-14.0467
546.001648	83.194550	-13.6835
549.958191	83.041245	-13.1323
553.943420	82.898438	-12.4146
557.957520	82.771576	-11.5287
562.000671	82.666313	-10.4729
566.073181	82.580215	-9.2073
570.175171	82.543022	-7.8426
574.306885	82.595474	-6.4554
578.468567	82.702560	-5.1105
582.660400	82.827286	-3.8441
586.882568	83.015213	-2.8180
591.135376	83.329964	-2.1702
595.419006	83.681808	-2.0085
599.733643	84.009506	-2.5647
604.079590	84.289139	-3.6066
608.456970	84.473259	-5.0494
612.866089	84.571815	-6.6784
617.307190	84.570824	-8.2949
621.780457	84.495354	-9.7645
626.286133	84.346230	-10.8445
630.824463	84.182510	-11.6627
635.395691	84.084183	-12.2520
640.000000	83.990341	-12.6598
644.637695	83.849876	-12.9561
649.309021	83.711441	-13.1057
654.014160	83.612358	-13.0626
658.753418	83.537216	-12.9286
663.527039	83.483025	-12.7739
668.335205	83.449074	-12.6483
673.178284	83.447624	-12.6619
678.056396	83.437080	-12.7029
682.969849	83.355545	-12.6805
687.918945	83.275238	-12.6392
692.903870	83.280716	-12.6296
697.924927	83.275101	-12.5435
702.982422	83.139183	-12.2664
708.076477	83.021301	-11.8657
713.207520	83.067337	-11.2839
718.375732	83.169601	-10.7834
723.581360	83.269524	-10.6680
728.824707	83.361710	-10.7604
734.106079	83.417351	-11.0126
739.425720	83.448921	-11.3348
744.783936	83.454445	-11.6251
750.180908	83.449013	-11.8712
755.617065	83.438072	-11.9750
761.092529	83.448891	-12.0934
766.607727	83.536163	-12.3630
772.162903	83.623741	-12.7513
777.758301	83.634949	-13.3013
783.394287	83.624054	-13.9208
789.071045	83.628868	-14.5146
794.789001	83.624046	-15.1337
800.548340	83.595634	-15.8104
806.349487	83.546211	-16.5076
812.192627	83.482971	-17.2567
818.078125	83.378471	-17.8831
824.006226	83.175385	-18.2065
829.977295	82.969658	-18.2712
835.991699	82.853447	-17.9901
842.049622	82.783180	-17.5806
848.151428	82.749138	-17.2385
854.297485	82.739990	-16.9449
860.488098	82.739662	-16.7410
866.723572	82.752930	-16.6401
873.004211	82.785370	-16.6691
879.330322	82.818901	-16.8301
885.702332	82.839020	-17.1561
892.120483	82.840034	-17.5834
898.585144	82.811089	-18.0812
905.096680	82.753265	-18.5833
911.655396	82.662521	-19.0418
918.261597	82.543488	-19.3691
924.915710	82.384850	-19.4440
931.618042	82.230530	-19.3177
938.368896	82.123764	-18.9443
945.168762	82.056175	-18.4967
952.017822	82.045113	-18.1266
958.916504	82.055946	-17.8558
965.865234	82.061432	-17.7853
972.864319	82.056046	-17.8277
979.914062	82.023605	-17.9473
987.014954	81.969254	-18.0875
994.167236	81.892693	-18.1973
1001.371399	81.794380	-18.2241
1008.627747	81.669403	-18.1088
1015.936646	81.533577	-17.8206
1023.298584	81.397552	-17.3019
1030.713867	81.272385	-16.5747
1038.182739	81.169029	-15.6265
1045.705933	81.098221	-14.5051
1053.283447	81.068642	-13.2046
1060.916016	81.097725	-11.8746
1068.603882	81.220352	-10.6393
1076.347412	81.393227	-9.5729
1084.147095	81.585815	-8.8214
1092.003296	81.793289	-8.2935
1099.916382	81.985176	-7.8857
1107.886841	82.207970	-7.7747
1115.915039	82.540871	-8.1345
1124.001343	82.856987	-8.8757
1132.146362	83.027267	-10.0410
1140.350342	83.133675	-11.4026
1148.613770	83.221535	-12.7241
1156.937134	83.274841	-14.0693
1165.320801	83.295876	-15.4652
1173.765137	83.274200	-16.7904
1182.270752	83.177582	-17.9031
1190.838013	83.073387	-18.8882
1199.467285	83.036476	-19.7355
1208.159180	83.014084	-20.5925
1216.913940	82.983406	-21.6395
1225.732178	82.927269	-22.7708
1234.614380	82.821480	-23.9929
1243.560913	82.664696	-25.1439
1252.572266	82.432678	-26.0776
1261.648926	82.170097	-26.7509
1270.791382	81.908226	-27.0214
1280.000000	81.663910	-27.0423
1289.275391	81.479202	-26.9270
1298.618042	81.309708	-26.6575
1308.028320	81.104584	-26.2407
1317.506836	80.923683	-25.7115
1327.054077	80.821190	-25.0432
1336.670410	80.765137	-24.4271
1346.356567	80.758003	-24.0836
1356.112793	80.749084	-23.9034
1365.939697	80.674973	-23.8766
1375.837891	80.575447	-23.9198
1385.807739	80.485802	-23.9996
1395.849854	80.357620	-23.9556
1405.964844	80.112907	-23.5898
1416.152954	79.873787	-22.9787
1426.415039	79.763985	-22.0581
1436.751465	79.704170	-21.0548
1447.162720	79.655533	-20.2126
1457.649414	79.617142	-19.4211
1468.212158	79.568237	-18.6375
1478.851440	79.530113	-17.8967
1489.567871	79.529984	-17.2249
1500.361816	79.530022	-16.6073
1511.234131	79.497620	-16.0865
1522.185059	79.443298	-15.5168
1533.215454	79.353226	-14.7590
1544.325806	79.268318	-13.8325
1555.516602	79.221481	-12.6431
1566.788574	79.223862	-11.3942
1578.142090	79.319389	-10.2688
1589.578003	79.442474	-9.2391
1601.096680	79.519592	-8.3257
1612.698975	79.616501	-7.5629
1624.385254	79.802704	-6.9825
1636.156250	79.996193	-6.6121
1648.012451	80.129280	-6.5583
1659.954590	80.225700	-6.6167
1671.983398	80.277405	-6.6126
1684.099243	80.313850	-6.5574
1696.302856	80.363708	-6.3878
1708.594971	80.421715	-6.1561
1720.976196	80.484543	-5.8506
1733.447144	80.574509	-5.6018
1746.008423	80.739395	-5.5660
1758.660645	80.900406	-5.6594
1771.404663	80.968338	-5.8764
1784.240967	81.019768	-6.1339
1797.170288	81.109291	-6.2863
1810.193359	81.216560	-6.5139
1823.310791	81.355286	-6.9836
1836.523193	81.476593	-7.5963
1849.831421	81.522774	-8.3442
1863.236084	81.533005	-9.1156
1876.737793	81.530746	-9.8027
1890.337524	81.507156	-10.3838
1904.035645	81.445129	-10.7698
1917.833008	81.392151	-11.0560
1931.730469	81.408325	-11.2871
1945.728638	81.439865	-11.5288
1959.828125	81.445992	-11.8811
1974.029907	81.446007	-12.2872
1988.334473	81.451050	-12.7277
2002.742798	81.446060	-13.1871
2017.255493	81.414841	-13.6554
2031.873291	81.371193	-14.0973
2046.597168	81.319725	-14.4450
2061.427734	81.272186	-14.7854
2076.365479	81.260262	-15.2192
2091.411865	81.229210	-15.6404
2106.566895	81.108559	-15.9795
2121.832031	80.975525	-16.2233
2137.207764	80.906189	-16.3420
2152.694824	80.836319	-16.3164
2168.294189	80.687981	-16.0541
2184.006592	80.575333	-15.7444
2199.832764	80.643219	-15.5471
2215.773682	80.725739	-15.4641
2231.830078	80.665718	-15.6185
2248.002686	80.575371	-15.8043
2264.292725	80.527679	-15.8070
2280.700684	80.488167	-15.7692
2297.227539	80.444626	-15.7610
2313.874268	80.401184	-15.7917
2330.641602	80.374603	-15.9574
2347.530273	80.315384	-16.0678
2364.541504	80.140900	-15.9494
2381.676025	79.965706	-15.6439
2398.934570	79.899803	-15.0581
2416.318359	79.878029	-14.4257
2433.827881	79.877983	-13.9928
2451.464355	79.878029	-13.6354
2469.228760	79.840134	-13.3327
2487.121826	79.791214	-13.0145
2505.144531	79.742264	-12.5768
2523.297852	79.704132	-12.0992
2541.582764	79.699493	-11.6200
2560.000000	79.703979	-11.1620
2578.550781	79.701027	-10.7859
2597.236084	79.689087	-10.4158
2616.056641	79.657669	-10.0153
2635.013672	79.617180	-9.5234
2654.108154	79.563202	-8.8363
2673.340820	79.530060	-8.0466
2692.713135	79.562889	-7.1926
2712.225586	79.625648	-6.3370
2731.879395	79.688904	-5.5411
2751.675781	79.776512	-4.8479
2771.615479	79.921432	-4.3380
2791.699707	80.068390	-3.9604
2811.929688	80.155136	-3.7061
2832.305908	80.233620	-3.5287
2852.830078	80.347092	-3.3678
2873.502930	80.461517	-3.2573
2894.325439	80.548805	-3.2150
2915.298828	80.632607	-3.2308
2936.424316	80.738159	-3.3155
2957.702881	80.833633	-3.4235
2979.135742	80.878822	-3.5099
3000.723633	80.922760	-3.5827
3022.468262	81.010361	-3.5951
3044.370117	81.115486	-3.6684
3066.430908	81.235146	-3.9341
3088.651611	81.343567	-4.3181
3111.033203	81.409012	-4.8225
3133.577148	81.445892	-5.3456
3156.284180	81.452385	-5.7817
3179.156006	81.446030	-6.1425
3202.193359	81.445999	-6.3995
3225.397949	81.445992	-6.5704
3248.770508	81.440567	-6.6511
3272.312500	81.445930	-6.6780
3296.024902	81.479553	-6.6565
3319.909180	81.532715	-6.6747
3343.966797	81.614929	-6.8503
3368.198486	81.688713	-7.1017
3392.605713	81.707718	-7.4165
3417.189941	81.707031	-7.7009
3441.952393	81.702698	-7.8303
3466.894287	81.706940	-7.8818
3492.016846	81.739365	-7.8617
3517.321289	81.793701	-7.8618
3542.809326	81.881081	-7.9944
3568.481934	81.968636	-8.2078
3594.340576	82.017807	-8.5089
3620.386719	82.055832	-8.8315
3646.621582	82.094170	-9.0792
3673.046387	82.142731	-9.3475
3699.662842	82.226768	-9.7006
3726.472168	82.311638	-10.1407
3753.475586	82.368355	-10.7246
3780.675049	82.403893	-11.3531
3808.071289	82.409760	-11.9440
3835.666016	82.404045	-12.5015
3863.460938	82.403999	-12.9907
3891.457275	82.403999	-13.4478
3919.656250	82.403999	-13.8926
3948.059814	82.404007	-14.3398
3976.668945	82.409431	-14.8274
4005.485596	82.404076	-15.3066
4034.510986	82.366165	-15.7561
4063.746582	82.317253	-16.1314
4093.194336	82.268295	-16.3569
4122.855469	82.230141	-16.5044
4152.730957	82.224556	-16.6209
4182.823730	82.229965	-16.7067
4213.133789	82.219147	-16.7463
4243.664062	82.229866	-16.8324
4274.415527	82.316544	-17.0651
4305.389648	82.403648	-17.4091
4336.588379	82.414894	-17.8995
4368.013184	82.404076	-18.4225
4399.665527	82.403999	-18.8522
4431.547363	82.403999	-19.2560
4463.660156	82.403999	-19.6614
4496.005371	82.403999	-20.0669
4528.585449	82.403999	-20.4782
4561.401367	82.403999	-20.9010
4594.455078	82.403999	-21.3354
4627.748535	82.403999	-21.8036
4661.283203	82.410927	-22.3489
4695.060547	82.404091	-22.9073
4729.083008	82.352722	-23.4275
4763.352051	82.293274	-23.9138
4797.869141	82.264519	-24.3601
4832.636719	82.230209	-24.7472
4867.655762	82.149040	-25.0449
4902.928711	82.073303	-25.2790
4938.457520	82.054718	-25.4319
4974.243652	82.055977	-25.6050
5010.289062	82.059494	-25.9216
5046.595703	82.056061	-26.3010
5083.165527	82.026001	-26.7200
5120.000000	81.983238	-27.1260
5157.101562	81.928207	-27.4275
5194.472168	81.882187	-27.7185
5232.113281	81.881172	-28.0560
5270.027344	81.882034	-28.4637
5308.216309	81.854530	-29.0410
5346.681641	81.794403	-29.6173
5385.426270	81.669556	-30.0458
5424.451172	81.533646	-30.3489
5463.758789	81.440994	-30.4767
5503.351562	81.359398	-30.5011
5543.230957	81.267128	-30.4711
5583.399414	81.185364	-30.4064
5623.859375	81.140640	-30.3556
5664.611816	81.096252	-30.2805
5705.660156	81.009827	-30.1693
5747.005859	80.923401	-29.9902
5788.650879	80.868912	-29.6746
5830.597656	80.836105	-29.3188
5872.848633	80.830551	-29.0059
5915.405762	80.835960	-28.7104
5958.271484	80.830574	-28.4326
6001.447266	80.835922	-28.1763
6044.936523	80.868340	-27.9103
6088.740234	80.922668	-27.7405
6132.861816	81.015465	-27.7950
6177.303223	81.097664	-27.9778
6222.066406	81.108955	-28.2620
6267.154297	81.098076	-28.5636
6312.568359	81.098000	-28.7681
6358.312012	81.098000	-28.9392
6404.386719	81.098000	-29.1049
6450.795898	81.098000	-29.2612
6497.541016	81.098000	-29.4143
6544.625000	81.098007	-29.5623
6592.049805	81.098000	-29.7059
6639.818359	81.098000	-29.8423
6687.933594	81.098000	-29.9730
6736.396973	81.098000	-30.0854
6785.211426	81.093758	-30.1571
6834.379883	81.097939	-30.2197
6883.904785	81.125191	-30.2773
6933.788574	81.165756	-30.3911
6984.033691	81.222961	-30.6471
7034.642578	81.271805	-30.9772
7085.618652	81.278641	-31.3560
7136.963867	81.272049	-31.7391
7188.681152	81.272003	-32.0607
7240.773438	81.272003	-32.3595
7293.243164	81.272003	-32.6536
7346.092773	81.272003	-32.9415
7399.325684	81.272003	-33.2280
7452.944336	81.272003	-33.5126
7506.951172	81.272003	-33.7963
7561.350098	81.271996	-34.0795
7616.142578	81.272003	-34.3625
7671.332031	81.272003	-34.6455
7726.921875	81.272003	-34.9293
7782.914551	81.272003	-35.2125
7839.312500	81.272003	-35.4951
7896.119629	81.271996	-35.7736
7953.337891	81.272003	-36.0492
8010.971191	81.272003	-36.3077
8069.021973	81.266579	-36.5188
8127.493164	81.271927	-36.7308
8186.388672	81.309830	-36.9678
8245.710938	81.358727	-37.2741
8305.461914	81.407692	-37.7279
8365.647461	81.445839	-38.2541
8426.267578	81.451447	-38.8107
8487.328125	81.446030	-39.3741
8548.831055	81.445999	-39.8940
8610.779297	81.445992	-40.4073
8673.176758	81.445999	-40.9298
8736.026367	81.445999	-41.4760
8799.331055	81.451424	-42.0815
8863.094727	81.446068	-42.6987
8927.320312	81.408173	-43.3048
8992.010742	81.359261	-43.8583
9057.170898	81.310310	-44.2841
9122.802734	81.272156	-44.6600
9188.910156	81.266556	-45.0312
9255.497070	81.271965	-45.4248
9322.566406	81.272003	-45.8911
9390.121094	81.272003	-46.4052
9458.166016	81.272003	-46.9517
9526.704102	81.272003	-47.5497
9595.738281	81.277428	-48.2291
9665.273438	81.272079	-48.9431
9735.311523	81.232758	-49.6573
9805.857422	81.185249	-50.3641
9876.915039	81.151932	-51.0283
9948.487305	81.121170	-51.6992
10020.578125	81.091873	-52.4299
10093.191406	81.054245	-53.1769
10166.331055	80.990120	-53.9055
10240.000000	80.923340	-54.6390
10314.203125	80.878708	-55.3674
10388.944336	80.836220	-56.1559
10464.226562	80.794800	-57.1152
10540.054688	80.721596	-58.1001
10616.432617	80.564072	-59.0250
10693.363281	80.379112	-59.8179
10770.852539	80.203331	-60.3110
10848.902344	80.047745	-60.7039
10927.517578	79.957626	-61.1518
11006.703125	79.866562	-61.6283
11086.461914	79.716942	-62.2412
11166.798828	79.525185	-62.7408
11247.718750	79.259880	-62.8584
11329.223633	79.008171	-62.7511
11411.320312	78.875076	-62.4400
11494.011719	78.778488	-62.0739
11577.301758	78.669189	-61.8727
11661.195312	78.549713	-61.6465
11745.697266	78.388382	-61.2537
11830.811523	78.239708	-60.7599
11916.542969	78.166939	-60.1791
12002.894531	78.114288	-59.5297
12089.873047	78.025894	-58.8285
12177.480469	77.962227	-58.0942
12265.723633	77.978714	-57.3042
12354.606445	78.037598	-56.5994
12444.132812	78.123863	-56.1276
12534.308594	78.222458	-55.8500
12625.136719	78.316658	-55.8093
12716.624023	78.396637	-55.9053
12808.773438	78.436768	-56.0522
12901.591797	78.467819	-56.2458
12995.082031	78.518158	-56.4403
13089.250000	78.570732	-56.6757
13184.099609	78.615776	-56.9778
13279.636719	78.658768	-57.3448
13375.867188	78.707741	-57.7969
13472.793945	78.745834	-58.2950
13570.422852	78.751450	-58.8157
13668.759766	78.746048	-59.3319
13767.809570	78.746002	-59.7990
13867.577148	78.746002	-60.2454
13968.067383	78.746002	-60.6918
14069.285156	78.746002	-61.1196
14171.237305	78.738892	-61.4917
14273.927734	78.745903	-61.8828
14377.362305	78.798935	-62.3486
14481.546875	78.859688	-62.9107
14586.486328	78.896957	-63.6354
14692.185547	78.919907	-64.4441
14798.651367	78.925064	-65.2788
14905.888672	78.920044	-66.1419
15013.902344	78.913681	-67.0180
15122.700195	78.899109	-67.9049
15232.285156	78.870323	-68.8035
15342.664062	78.833244	-69.6897
15453.843750	78.786636	-70.5153
15565.829102	78.746178	-71.3533
15678.625000	78.739708	-72.2642
15792.239258	78.730103	-73.2415
15906.675781	78.684929	-74.3372
16021.942383	78.616432	-75.4371
16138.043945	78.511406	-76.3943
16254.986328	78.414482	-77.3562
16372.777344	78.399391	-78.4534
16491.421875	78.367332	-79.5966
16610.923828	78.210960	-80.7811
16731.294922	78.025085	-81.8790
16852.535156	77.873291	-82.6838
16974.656250	77.746681	-83.4225
17097.662109	77.672279	-84.2591
17221.558594	77.604439	-85.1870
17346.353516	77.499825	-86.2744
17472.052734	77.376801	-87.4565
17598.662109	77.245407	-88.6984
17726.189453	77.088997	-89.9775
17854.640625	76.892891	-91.2938
17984.021484	76.660423	-92.5462
18114.341797	76.374123	-93.5889
18245.605469	76.081657	-94.5555
18377.820312	75.859230	-95.5562
18510.994141	75.605705	-96.5234
18645.132812	75.234192	-97.5818
18780.242188	74.773804	-98.2619
18916.332031	74.161850	-98.0153
19053.408203	73.588959	-97.1882
19191.476562	73.286942	-95.8590
19330.546875	73.076057	-94.3008
19470.623047	72.818108	-92.8325
19611.714844	72.609993	-91.4001
19753.830078	72.533394	-90.0203
19896.974609	72.502144	-88.7918
