* Measurement data measured by REW V5.20 Beta 53
* Source: C:\Users\Napie\Music\REW\Top Speakers\New Folder\2-LW.txt
* Format: Comma/Tab/Space delimited data
* Dated: May 26, 2020 2:39:10 PM
* REW Settings:
*  C-weighting compensation: Off
*  Target level: 75.0 dB
* Note: ; Measurement imported from C:\Users\Napie\Music\REW\Top Speakers\New Folder\2-LW.txt Format: Comma/Tab/Space delimited data 623 values loaded, 5 Hz to 39,792 Hz log spaced 
* Measurement: 2-LW
* Smoothing: None
* Frequency Step: 1/96 octave
* Start Frequency: 20.000 Hz
*
* Freq(Hz)	SPL(dB)	Phase(degrees)
20.000000	55.316715	-31.7079
20.144928	55.615231	-32.8773
20.290907	55.913734	-34.1848
20.437943	56.233021	-35.7451
20.586044	56.509830	-37.4348
20.735220	56.680828	-39.2836
20.885475	56.766945	-40.9463
21.036821	56.727566	-42.0327
21.189262	56.684021	-42.7064
21.342808	56.778603	-42.9565
21.497467	56.908836	-42.9192
21.653246	56.998749	-42.7764
21.810154	57.109829	-42.3807
21.968201	57.251209	-41.4675
22.127390	57.504639	-40.5679
22.287735	58.046162	-40.2109
22.449242	58.602596	-40.1420
22.611917	58.866650	-40.3494
22.775772	59.114655	-40.6297
22.940815	59.562859	-40.6071
23.107054	60.086277	-40.7855
23.274498	60.648220	-41.6059
23.443153	61.198284	-42.8850
23.613033	61.675701	-44.6945
23.784142	62.074696	-46.7072
23.956491	62.335781	-48.5956
24.130091	62.559742	-50.4309
24.304947	62.857262	-52.1568
24.481071	63.139656	-53.8298
24.658470	63.333378	-55.5066
24.837156	63.502766	-57.1308
25.017136	63.711758	-58.7040
25.198421	63.888847	-60.1077
25.381020	63.937214	-61.1902
25.564941	63.995914	-62.0523
25.750195	64.208366	-62.6617
25.936790	64.465675	-63.2672
26.124741	64.717613	-64.2302
26.314051	64.930740	-65.1817
26.504732	65.005714	-65.8329
26.696796	65.089859	-66.3005
26.890253	65.337364	-66.5313
27.085112	65.629654	-66.7497
27.281382	65.903610	-67.2916
27.479073	66.145714	-67.7705
27.678198	66.270256	-67.8634
27.878765	66.430702	-67.7124
28.080786	66.773865	-67.1862
28.284271	67.235283	-66.7843
28.489231	67.828445	-66.9639
28.695675	68.465118	-67.7245
28.903616	69.079109	-69.3707
29.113064	69.617310	-71.4429
29.324028	69.949669	-73.5563
29.536524	70.240639	-75.7863
29.750557	70.667397	-78.0652
29.966141	71.063606	-80.4403
30.183289	71.287483	-83.0257
30.402010	71.440834	-85.5539
30.622314	71.583527	-87.7788
30.844217	71.700867	-89.7478
31.067726	71.780388	-91.3875
31.292856	71.874817	-92.8160
31.519617	72.049110	-94.0818
31.748020	72.254738	-95.3195
31.978081	72.470238	-96.7216
32.209808	72.678734	-98.1631
32.443211	72.843605	-99.5889
32.678310	73.002777	-100.9802
32.915108	73.182327	-102.2492
33.153625	73.381737	-103.5473
33.393871	73.630157	-105.0322
33.635857	73.864662	-106.5985
33.879597	74.010620	-108.2183
34.125103	74.131836	-109.8159
34.372387	74.279045	-111.2985
34.621464	74.417809	-112.6900
34.872345	74.519623	-113.9990
35.125042	74.616882	-115.1786
35.379574	74.726288	-116.1272
35.635948	74.866798	-117.0169
35.894180	75.085381	-118.0012
36.154285	75.314682	-119.0364
36.416275	75.476265	-120.1034
36.680161	75.649704	-121.2811
36.945961	75.935631	-122.6946
37.213688	76.193680	-124.1868
37.483353	76.264122	-125.6802
37.754974	76.303925	-127.0590
38.028561	76.440529	-128.1074
38.304131	76.604774	-129.0468
38.581699	76.763458	-130.0356
38.861279	76.934731	-131.0494
39.142883	77.132706	-132.1070
39.426529	77.336731	-133.2364
39.712231	77.537163	-134.5246
40.000000	77.714760	-135.8141
40.289856	77.821541	-136.9556
40.581814	77.933815	-138.0116
40.875885	78.129997	-138.9418
41.172089	78.356651	-139.9065
41.470440	78.592934	-141.1084
41.770950	78.818642	-142.3809
42.073643	78.980125	-143.5869
42.378525	79.156708	-144.8382
42.685616	79.435081	-146.1291
42.994934	79.740562	-147.6755
43.306492	80.056824	-149.8411
43.620308	80.294739	-152.1794
43.936401	80.296867	-154.3728
44.254780	80.251053	-156.3940
44.575470	80.331787	-158.0435
44.898483	80.423866	-159.5217
45.223835	80.449356	-160.9866
45.551544	80.468956	-162.3680
45.881630	80.532341	-163.6412
46.214108	80.595917	-164.8272
46.548996	80.621468	-165.9561
46.886307	80.641960	-166.9765
47.226067	80.682861	-167.8542
47.568283	80.728920	-168.5679
47.912983	80.752190	-169.0334
48.260181	80.815842	-169.4054
48.609894	81.001656	-169.7831
48.962143	81.226646	-170.2502
49.316940	81.423119	-170.9480
49.674313	81.625664	-171.8025
50.034271	81.856888	-172.7844
50.396843	82.085663	-173.8992
50.762039	82.287376	-175.1872
51.129883	82.464714	-176.5147
51.500389	82.594093	-177.7299
51.873581	82.729736	-178.9259
52.249481	82.934258	179.9022
52.628101	83.159622	178.6113
53.009464	83.391006	177.0043
53.393593	83.590706	175.2481
53.780506	83.705788	173.3762
54.170223	83.766937	171.5948
54.562763	83.771446	170.1230
54.958145	83.766991	168.9556
55.356396	83.781799	168.2849
55.757530	83.871765	167.7359
56.161572	84.143730	167.0497
56.568542	84.473442	166.0670
56.978462	84.777878	164.4315
57.391350	85.038589	162.4758
57.807232	85.188156	160.3893
58.226128	85.290840	158.2487
58.648056	85.399712	156.1919
59.073048	85.481903	154.2231
59.501114	85.502968	152.4040
59.932281	85.519951	150.7000
60.366577	85.587418	149.1555
60.804020	85.678825	147.5947
61.244629	85.802170	145.8169
61.688435	85.907852	143.9403
62.135452	85.935684	141.9698
62.585712	85.925049	140.0472
63.039234	85.888390	138.3436
63.496040	85.847069	136.7765
63.956161	85.833458	135.3361
64.419617	85.827011	133.9734
64.886421	85.816521	132.6283
65.356621	85.806023	131.3243
65.830215	85.795959	130.0651
66.307251	85.786026	128.8503
66.787743	85.774895	127.6835
67.271713	85.766006	126.5580
67.759193	85.763748	125.4659
68.250206	85.764000	124.4138
68.744774	85.759254	123.4160
69.242928	85.763977	122.4417
69.744690	85.794678	121.4846
70.250084	85.837906	120.4860
70.759148	85.892532	119.3615
71.271896	85.937935	118.1802
71.788361	85.944260	116.9747
72.308571	85.938019	115.7722
72.832550	85.943314	114.5988
73.360321	85.938026	113.4910
73.891922	85.890282	112.5231
74.427376	85.853043	111.6087
74.966705	85.893402	110.6827
75.509949	85.937950	109.7537
76.057121	85.913567	108.7965
76.608261	85.885040	107.8489
77.163399	85.908134	106.9591
77.722557	85.937950	106.0708
78.285767	85.941315	105.1258
78.853058	85.938004	104.1769
79.424461	85.938004	103.2685
80.000000	85.938004	102.3677
80.579712	85.943436	101.4338
81.163628	85.938034	100.5337
81.751770	85.894600	99.7238
82.344177	85.851074	98.9944
82.940880	85.845558	98.3607
83.541901	85.850990	97.8030
84.147285	85.834763	97.3576
84.757050	85.850914	96.8720
85.371231	85.980721	96.1861
85.989868	86.110779	95.3578
86.612984	86.127258	94.3319
87.240616	86.111046	93.2890
87.872803	86.109810	92.4225
88.509560	86.110992	91.6415
89.150940	86.110802	90.9533
89.796967	86.129936	90.2555
90.447670	86.208511	89.4325
91.103088	86.284874	88.5299
91.763260	86.294701	87.5239
92.428215	86.285027	86.5090
93.097992	86.285004	85.5926
93.772614	86.284996	84.7137
94.452133	86.285004	83.8477
95.136566	86.285011	82.9917
95.825966	86.285004	82.1411
96.520363	86.285004	81.2768
97.219788	86.292252	80.3541
97.924286	86.285042	79.4468
98.633881	86.230751	78.6089
99.348625	86.169113	77.8574
100.068542	86.132805	77.2566
100.793686	86.111031	76.7183
101.524078	86.107376	76.1678
102.259766	86.110977	75.6273
103.000778	86.104378	75.1115
103.747162	86.110970	74.5691
104.498962	86.159645	73.9705
105.256203	86.216911	73.2644
106.018929	86.268440	72.3204
106.787186	86.285027	71.3458
107.561012	86.202415	70.5164
108.340446	86.111122	69.7990
109.125526	86.100121	69.2654
109.916290	86.110977	68.7749
110.712791	86.111000	68.1888
111.515060	86.111000	67.5723
112.323143	86.111000	66.9519
113.137085	86.111000	66.3063
113.956924	86.120056	65.5789
114.782700	86.111061	64.9016
115.614464	86.024185	64.4646
116.452255	85.966049	64.0389
117.296112	86.084679	63.4297
118.146095	86.197845	62.7196
119.002228	86.121002	61.8540
119.864563	86.006287	61.0499
120.733154	85.960075	60.5850
121.608040	85.938026	60.2247
122.489258	85.933746	59.8141
123.376869	85.937988	59.3861
124.270905	85.938004	58.9147
125.171425	85.938011	58.4239
126.078468	85.938004	57.9258
126.992081	85.938004	57.4310
127.912323	85.930321	56.9944
128.839233	85.937965	56.4961
129.772842	86.012482	55.7747
130.713242	86.060959	55.0085
131.660431	85.963844	54.3087
132.614502	85.851265	53.7175
133.575485	85.833557	53.4016
134.543427	85.852943	53.0986
135.518387	85.899170	52.5648
136.500412	85.937950	51.9053
137.489548	85.929558	51.0796
138.485855	85.880173	50.2838
139.489380	85.763535	49.7046
140.500168	85.637260	49.3315
141.518295	85.549973	49.2818
142.543793	85.503052	49.3568
143.576721	85.523224	49.4355
144.617142	85.582840	49.4003
145.665100	85.683701	49.0202
146.720642	85.763847	48.5134
147.783844	85.725761	48.0201
148.854752	85.677094	47.5462
149.933411	85.716248	47.1964
151.019897	85.775848	46.8120
152.114243	85.819588	46.2321
153.216522	85.850945	45.5639
154.326797	85.858559	44.8525
155.445114	85.851028	44.1266
156.571533	85.830612	43.4463
157.706116	85.805054	42.7635
158.848923	85.797974	42.0014
160.000000	85.764137	41.3065
161.159424	85.631264	40.8239
162.327255	85.503227	40.4836
163.503540	85.486671	40.3185
164.688354	85.502960	40.1644
165.881760	85.502998	39.8438
167.083801	85.502998	39.4282
168.294571	85.513802	38.8923
169.514099	85.503067	38.3512
170.742462	85.416733	37.9272
171.979736	85.330193	37.5759
173.225967	85.319183	37.3411
174.481232	85.329964	37.0787
175.745605	85.340866	36.5974
177.019119	85.330070	36.0802
178.301880	85.243233	35.6724
179.593933	85.156181	35.2989
180.895340	85.155670	34.9443
182.206177	85.156029	34.5729
183.526520	85.088257	34.0723
184.856430	84.987259	33.6567
186.195984	84.844261	33.5706
187.545227	84.722221	33.6138
188.904266	84.716225	33.6650
190.273132	84.722015	33.7299
191.651932	84.641174	33.7273
193.040726	84.549240	33.7976
194.439575	84.489380	34.1165
195.848572	84.462013	34.4999
197.267761	84.494560	34.8268
198.697250	84.548866	35.0805
200.137085	84.591904	35.1850
201.587372	84.634895	35.1981
203.048157	84.680634	35.1428
204.519531	84.721886	35.0473
206.001556	84.744629	34.9608
207.494324	84.771919	34.8433
208.997925	84.833595	34.6703
210.512405	84.895866	34.4446
212.037857	84.923508	34.1674
213.574371	84.949928	33.8190
215.122025	85.015839	33.3600
216.680893	85.064926	32.8505
218.251053	85.036758	32.3040
219.832581	84.983170	31.8212
221.425583	84.934502	31.5464
223.030121	84.896080	31.3634
224.646286	84.890564	31.2101
226.274170	84.895988	31.0664
227.913849	84.891006	30.9099
229.565399	84.895973	30.6867
231.228928	84.944252	30.3109
232.904510	84.975960	29.8545
234.592224	84.930557	29.2920
236.292191	84.842270	28.8299
238.004456	84.704926	28.7180
239.729126	84.580284	28.8046
241.466309	84.548157	29.0618
243.216080	84.548973	29.3642
244.978516	84.547066	29.5498
246.753738	84.549004	29.6986
248.541809	84.549004	29.8318
250.342850	84.549004	29.9666
252.156937	84.549004	30.1166
253.984161	84.549004	30.3144
255.824646	84.541824	30.5995
257.678467	84.548958	30.9650
259.545685	84.575996	31.5237
261.426483	84.663681	31.9563
263.320862	84.913116	31.9186
265.229004	85.149460	31.5923
267.150970	85.183395	30.9503
269.086853	85.156105	30.2787
271.036774	85.156372	29.9066
273.000824	85.155998	29.6825
274.979095	85.149193	29.5707
276.971710	85.155945	29.5470
278.978760	85.192360	29.6304
281.000336	85.264748	29.6561
283.036591	85.407639	29.4500
285.087585	85.552597	29.0575
287.153442	85.632820	28.4075
289.234283	85.676933	27.6770
291.330200	85.684761	27.0260
293.441284	85.677032	26.4375
295.567688	85.671570	25.9868
297.709503	85.676964	25.5552
299.866821	85.725807	25.0214
302.039795	85.763931	24.4656
304.228485	85.726082	23.9183
306.433044	85.677124	23.4103
308.653595	85.671562	23.0222
310.890228	85.676979	22.6351
313.143066	85.687866	22.1049
315.412231	85.677086	21.5863
317.697845	85.590271	21.2057
320.000000	85.503212	20.9097
322.318848	85.497482	20.7021
324.654510	85.502998	20.5365
327.007080	85.455582	20.3776
329.376709	85.417068	20.1957
331.763519	85.457985	19.9216
334.167603	85.489967	19.6379
336.589142	85.405518	19.4406
339.028198	85.330139	19.2217
341.484924	85.414429	18.8616
343.959473	85.478943	18.4880
346.451935	85.327301	18.1597
348.962463	85.156395	17.9673
351.491211	85.135788	18.1126
354.038239	85.155922	18.3224
356.603760	85.155998	18.3469
359.187866	85.155998	18.3122
361.790680	85.155998	18.2645
364.412354	85.155998	18.1973
367.053040	85.155998	18.1183
369.712860	85.155998	18.0283
372.391968	85.155998	17.9310
375.090454	85.155998	17.8243
377.808533	85.155998	17.7115
380.546265	85.155998	17.5804
383.303864	85.162239	17.3921
386.081451	85.156036	17.2294
388.879150	85.100975	17.1905
391.697144	85.056084	17.1919
394.535522	85.090042	17.2120
397.394501	85.138870	17.1623
400.274170	85.163467	16.8764
403.174744	85.156090	16.5659
406.096313	85.076286	16.3842
409.039062	84.983269	16.3439
412.003113	84.926704	16.5574
414.988647	84.896057	16.8768
417.995850	84.904190	17.1877
421.024811	84.929909	17.4990
424.075714	84.948738	17.7880
427.148743	84.982857	18.0363
430.244049	85.052681	18.2435
433.361786	85.139702	18.3339
436.502106	85.242126	18.1996
439.665161	85.329773	17.9360
442.851166	85.363197	17.5671
446.060242	85.368011	17.2010
449.292572	85.351440	16.9655
452.548340	85.330055	16.8253
455.827698	85.322189	16.8155
459.130798	85.329948	16.8519
462.457855	85.367989	16.8690
465.809021	85.416840	16.8442
469.184448	85.465294	16.7020
472.584381	85.502907	16.5355
476.008911	85.502945	16.4194
479.458252	85.502975	16.3362
482.932617	85.540916	16.3074
486.432159	85.589836	16.2900
489.957031	85.627991	16.2542
493.507477	85.676819	16.1813
497.083618	85.757782	16.0609
500.685699	85.849693	15.8409
504.313873	85.942085	15.4479
507.968323	86.023773	14.9358
511.649292	86.078247	14.3179
515.356934	86.110924	13.6432
519.091370	86.123306	12.9484
522.852966	86.111084	12.2841
526.641724	86.065567	11.6947
530.458008	86.001236	11.2352
534.301941	85.919388	11.0084
538.173706	85.851173	10.9171
542.073547	85.840424	10.9139
546.001648	85.850945	10.9499
549.958191	85.850853	10.9766
553.943420	85.869896	10.9442
557.957520	85.947914	10.7687
562.000671	86.023788	10.5050
566.073181	86.028206	10.1688
570.175171	86.024002	9.7953
574.306885	86.064659	9.4534
578.468567	86.110847	9.0575
582.660400	86.139557	8.5328
586.882568	86.153976	7.9133
591.135376	86.165901	7.1252
595.419006	86.127258	6.4171
599.733643	85.944481	6.0539
604.079590	85.764519	5.9161
608.456970	85.745468	6.0277
612.866089	85.763939	6.2184
617.307190	85.726425	6.2971
621.780457	85.697044	6.3469
626.286133	85.724007	6.4052
630.824463	85.763863	6.4200
635.395691	85.782379	6.3344
640.000000	85.798943	6.1995
644.637695	85.821663	6.0679
649.309021	85.850876	5.8818
654.014160	85.897591	5.5923
658.753418	85.937897	5.2244
663.527039	85.948883	4.7583
668.335205	85.938072	4.2786
673.178284	85.900093	3.8669
678.056396	85.851166	3.5131
682.969849	85.813080	3.2097
687.918945	85.764198	3.0284
692.903870	85.663017	3.0909
697.924927	85.590134	3.2415
702.982422	85.647842	3.3828
708.076477	85.731728	3.4559
713.207520	85.747459	3.3583
718.375732	85.763908	3.1231
723.581360	85.850082	2.7171
728.824707	85.913872	2.2387
734.106079	85.848679	1.7659
739.425720	85.764267	1.3284
744.783936	85.765480	0.9969
750.180908	85.764061	0.7278
755.617065	85.682762	0.4711
761.092529	85.590309	0.3153
766.607727	85.535774	0.3724
772.162903	85.503082	0.5254
777.758301	85.491119	0.7072
783.394287	85.502914	0.8765
789.071045	85.544441	0.9904
794.789001	85.605759	0.9873
800.548340	85.691147	0.7581
806.349487	85.763802	0.4025
812.192627	85.773888	-0.0369
818.078125	85.764046	-0.4954
824.006226	85.764000	-0.8735
829.977295	85.764000	-1.2328
835.991699	85.764000	-1.6016
842.049622	85.763992	-1.9825
848.151428	85.764000	-2.3809
854.297485	85.764000	-2.8173
860.488098	85.768433	-3.3196
866.723572	85.764046	-3.8728
873.004211	85.738998	-4.4918
879.330322	85.693207	-5.1147
885.702332	85.618423	-5.6893
892.120483	85.527351	-6.2013
898.585144	85.431488	-6.6160
905.096680	85.326393	-6.9429
911.655396	85.218559	-7.2407
918.261597	85.086548	-7.3282
924.915710	84.866898	-6.9655
931.618042	84.691460	-6.3834
938.368896	84.716179	-5.6611
945.168762	84.808601	-5.0200
952.017822	84.872795	-4.7332
958.916504	84.950661	-4.7275
965.865234	85.075157	-5.0311
972.864319	85.179695	-5.6084
979.914062	85.211708	-6.5637
987.014954	85.160370	-7.5058
994.167236	84.943802	-8.0082
1001.371399	84.722672	-8.2725
1008.627747	84.686172	-8.3198
1015.936646	84.671120	-8.2733
1023.298584	84.544716	-8.3356
1030.713867	84.399467	-8.2905
1038.182739	84.283371	-7.9206
1045.705933	84.201256	-7.4243
1053.283447	84.183174	-6.9027
1060.916016	84.200867	-6.4348
1068.603882	84.238869	-6.1400
1076.347412	84.287796	-5.9973
1084.147095	84.336777	-6.0419
1092.003296	84.374901	-6.2231
1099.916382	84.385880	-6.5160
1107.886841	84.375092	-6.8774
1115.915039	84.347908	-7.2958
1124.001343	84.288284	-7.6530
1132.146362	84.158516	-7.7993
1140.350342	84.028442	-7.8151
1148.613770	83.979286	-7.7151
1156.937134	83.941185	-7.5488
1165.320801	83.854836	-7.3909
1173.765137	83.767349	-7.1811
1182.270752	83.714256	-6.8702
1190.838013	83.673157	-6.4977
1199.467285	83.622360	-6.0598
1208.159180	83.594040	-5.6376
1216.913940	83.632690	-5.3060
1225.732178	83.680840	-5.0806
1234.614380	83.691078	-5.0547
1243.560913	83.676109	-5.0690
1252.572266	83.622353	-4.9838
1261.648926	83.562233	-4.8298
1270.791382	83.532913	-4.5911
1280.000000	83.507111	-4.2704
1289.275391	83.454826	-3.8485
1298.618042	83.420067	-3.3750
1308.028320	83.448997	-2.8558
1317.506836	83.506721	-2.4037
1327.054077	83.581139	-2.1716
1336.670410	83.648781	-2.0483
1346.356567	83.668449	-1.9736
1356.112793	83.680939	-1.9420
1365.939697	83.725815	-1.9244
1375.837891	83.766861	-1.9319
1385.807739	83.772377	-1.9830
1395.849854	83.767029	-2.0278
1405.964844	83.766998	-2.0125
1416.152954	83.766998	-1.9662
1426.415039	83.766998	-1.9038
1436.751465	83.766998	-1.8174
1447.162720	83.766998	-1.7124
1457.649414	83.766998	-1.5627
1468.212158	83.759506	-1.3287
1478.851440	83.766922	-1.0561
1489.567871	83.812523	-0.7421
1500.361816	83.886665	-0.4938
1511.234131	83.992699	-0.3951
1522.185059	84.114426	-0.5129
1533.215454	84.256416	-1.0017
1544.325806	84.359695	-1.6827
1555.516602	84.349007	-2.5011
1566.788574	84.276413	-3.2344
1578.142090	84.152740	-3.5950
1589.578003	84.028465	-3.7189
1601.096680	83.969170	-3.5994
1612.698975	83.941071	-3.3829
1624.385254	83.935555	-3.2268
1636.156250	83.940971	-3.0955
1648.012451	83.941002	-3.0151
1659.954590	83.941002	-2.9562
1671.983398	83.941002	-2.8984
1684.099243	83.941002	-2.8392
1696.302856	83.941002	-2.7747
1708.594971	83.941002	-2.6895
1720.976196	83.937256	-2.5608
1733.447144	83.940956	-2.4077
1746.008423	83.963745	-2.2271
1758.660645	84.000816	-2.0636
1771.404663	84.054321	-1.9664
1784.240967	84.114754	-1.9201
1797.170288	84.166847	-1.9084
1810.193359	84.229729	-1.9815
1823.310791	84.329910	-2.1807
1836.523193	84.430626	-2.5173
1849.831421	84.502312	-3.0502
1863.236084	84.548859	-3.6791
1876.737793	84.561821	-4.3394
1890.337524	84.549110	-4.9813
1904.035645	84.511131	-5.5332
1917.833008	84.462204	-5.9973
1931.730469	84.413246	-6.3242
1945.728638	84.375130	-6.5978
1959.828125	84.369553	-6.8674
1974.029907	84.374969	-7.1904
1988.334473	84.384422	-7.6747
2002.742798	84.375107	-8.2197
2017.255493	84.312065	-8.7850
2031.873291	84.224388	-9.2952
2046.597168	84.125183	-9.6305
2061.427734	84.028404	-9.8820
2076.365479	83.964020	-10.1073
2091.411865	83.897316	-10.2893
2106.566895	83.794525	-10.4513
2121.832031	83.681480	-10.5299
2137.207764	83.573303	-10.4696
2152.694824	83.469398	-10.2690
2168.294189	83.358040	-9.8461
2184.006592	83.287178	-9.3880
2199.832764	83.331718	-9.0371
2215.773682	83.400734	-8.8513
2231.830078	83.422478	-9.0058
2248.002686	83.411133	-9.2897
2264.292725	83.351280	-9.5703
2280.700684	83.261452	-9.7823
2297.227539	83.146500	-9.7912
2313.874268	83.032448	-9.6737
2330.641602	82.959290	-9.4695
2347.530273	82.890320	-9.1586
2364.541504	82.782722	-8.7201
2381.676025	82.693329	-8.1946
2398.934570	82.676544	-7.5609
2416.318359	82.698822	-6.9843
2433.827881	82.757919	-6.6621
2451.464355	82.812820	-6.4805
2469.228760	82.809326	-6.4281
2487.121826	82.784134	-6.3893
2505.144531	82.747894	-6.1951
2523.297852	82.726028	-5.9918
2541.582764	82.767212	-5.8660
2560.000000	82.812843	-5.8339
2578.550781	82.815308	-5.9912
2597.236084	82.788200	-6.1852
2616.056641	82.722290	-6.2993
2635.013672	82.639374	-6.3162
2654.108154	82.556351	-6.1660
2673.340820	82.479309	-5.8925
2692.713135	82.413300	-5.4628
2712.225586	82.378067	-5.0378
2731.879395	82.424446	-4.8017
2751.675781	82.464897	-4.6555
2771.615479	82.401566	-4.6023
2791.699707	82.313408	-4.5156
2811.929688	82.249756	-4.1986
2832.305908	82.205154	-3.8634
2852.830078	82.219017	-3.7247
2873.502930	82.205208	-3.5868
2894.325439	82.051872	-3.3549
2915.298828	81.872803	-2.9326
2936.424316	81.761208	-2.1494
2957.702881	81.671371	-1.1320
2979.135742	81.578300	0.0336
3000.723633	81.510223	1.3906
3022.468262	81.477646	3.0052
3044.370117	81.509666	4.7260
3066.430908	81.635948	6.5562
3088.651611	81.865707	8.0962
3111.033203	82.283119	8.8595
3133.577148	82.693275	9.1019
3156.284180	82.874672	8.8120
3179.156006	82.985535	8.3165
3202.193359	83.120049	8.0348
3225.397949	83.256340	7.6860
3248.770508	83.428566	7.0641
3272.312500	83.560570	6.3494
3296.024902	83.558525	5.5985
3319.909180	83.507294	4.9823
3343.966797	83.453667	4.7709
3368.198486	83.421059	4.7250
3392.605713	83.469208	4.7081
3417.189941	83.535706	4.6723
3441.952393	83.572052	4.4845
3466.894287	83.593941	4.2650
3492.016846	83.597633	4.0901
3517.321289	83.594032	3.9625
3542.809326	83.590759	3.9235
3568.481934	83.593964	3.9319
3594.340576	83.612694	3.9840
3620.386719	83.645805	4.0071
3646.621582	83.707397	3.9053
3673.046387	83.760803	3.7419
3699.662842	83.764801	3.5112
3726.472168	83.746124	3.3257
3753.475586	83.707985	3.3348
3780.675049	83.681053	3.4235
3808.071289	83.714119	3.5280
3835.666016	83.756821	3.6385
3863.460938	83.761307	3.7151
3891.457275	83.766945	3.7856
3919.656250	83.807899	3.8700
3948.059814	83.853790	3.9526
3976.668945	83.875458	4.0254
4005.485596	83.901825	4.0857
4034.510986	83.959747	4.1469
4063.746582	84.027664	4.1542
4093.194336	84.096176	4.0312
4122.855469	84.154747	3.8539
4152.730957	84.180397	3.6754
4182.823730	84.200890	3.4908
4213.133789	84.241730	3.3370
4243.664062	84.287781	3.1411
4274.415527	84.342148	2.8039
4305.389648	84.374931	2.4397
4336.588379	84.342606	2.1010
4368.013184	84.288277	1.8786
4399.665527	84.228416	1.9639
4431.547363	84.200996	2.1113
4463.660156	84.287506	2.1136
4496.005371	84.374680	2.0405
4528.585449	84.347923	1.8253
4561.401367	84.288315	1.6743
4594.455078	84.234978	1.8348
4627.748535	84.203072	2.1234
4661.283203	84.234528	2.4489
4695.060547	84.287720	2.7745
4729.083008	84.331169	3.0015
4763.352051	84.374794	3.2268
4797.869141	84.407494	3.5430
4832.636719	84.461632	3.8694
4867.655762	84.573906	4.2046
4902.928711	84.721214	4.4016
4938.457520	84.910645	4.2625
4974.243652	85.087250	3.9349
5010.289062	85.175835	3.4766
5046.595703	85.242668	2.9666
5083.165527	85.334068	2.5525
5120.000000	85.437454	2.0866
5157.101562	85.564369	1.4663
5194.472168	85.687431	0.6982
5232.113281	85.784706	-0.2775
5270.027344	85.850761	-1.3614
5308.216309	85.869682	-2.5008
5346.681641	85.851173	-3.6136
5385.426270	85.791168	-4.5873
5424.451172	85.715378	-5.4598
5463.758789	85.656799	-6.2306
5503.351562	85.590363	-6.9068
5543.230957	85.494446	-7.5035
5583.399414	85.390526	-7.9968
5623.859375	85.295418	-8.3609
5664.611816	85.202461	-8.6160
5705.660156	85.106903	-8.7683
5747.005859	85.019417	-8.8348
5788.650879	84.951073	-8.8214
5830.597656	84.896263	-8.7673
5872.848633	84.857185	-8.7310
5915.405762	84.821190	-8.6625
5958.271484	84.762032	-8.5012
6001.447266	84.722107	-8.3358
6044.936523	84.757767	-8.2334
6088.740234	84.802818	-8.2000
6132.861816	84.796387	-8.2975
6177.303223	84.776115	-8.4234
6222.066406	84.761879	-8.4835
6267.154297	84.748070	-8.5120
6312.568359	84.734436	-8.5170
6358.312012	84.724045	-8.4852
6404.386719	84.712517	-8.3712
6450.795898	84.721870	-8.2793
6497.541016	84.791603	-8.3059
6544.625000	84.865669	-8.4331
6592.049805	84.889923	-8.7081
6639.818359	84.895996	-9.0294
6687.933594	84.897881	-9.2980
6736.396973	84.896019	-9.5497
6785.211426	84.896004	-9.7852
6834.379883	84.896004	-10.0128
6883.904785	84.896004	-10.2413
6933.788574	84.896004	-10.4717
6984.033691	84.896004	-10.7073
7034.642578	84.896004	-10.9497
7085.618652	84.896004	-11.2006
7136.963867	84.896004	-11.4636
7188.681152	84.896004	-11.7407
7240.773438	84.896004	-12.0394
7293.243164	84.896004	-12.3573
7346.092773	84.896004	-12.7259
7399.325684	84.905983	-13.2058
7452.944336	84.896141	-13.7084
7506.951172	84.824440	-14.1741
7561.350098	84.736458	-14.5741
7616.142578	84.671455	-14.8417
7671.332031	84.608337	-15.0321
7726.921875	84.537140	-15.1951
7782.914551	84.462387	-15.2838
7839.312500	84.377045	-15.2385
7896.119629	84.306305	-15.1445
7953.337891	84.289421	-15.0703
8010.971191	84.278099	-15.0093
8069.021973	84.228058	-15.0159
8127.493164	84.164360	-14.9755
8186.388672	84.089256	-14.7612
8245.710938	84.028244	-14.4598
8305.461914	84.017426	-14.1017
8365.647461	84.027901	-13.7339
8426.267578	84.035667	-13.4013
8487.328125	84.060799	-13.1411
8548.831055	84.132477	-13.0287
8610.779297	84.200699	-12.9951
8673.176758	84.204140	-12.9979
8736.026367	84.203949	-13.0288
8799.331055	84.257301	-13.0447
8863.094727	84.317703	-13.1074
8927.320312	84.353470	-13.3016
8992.010742	84.374924	-13.5199
9057.170898	84.371521	-13.6549
9122.802734	84.374924	-13.7872
9188.910156	84.427368	-13.9453
9255.497070	84.487686	-14.1824
9322.566406	84.530518	-14.6053
9390.121094	84.548988	-15.0825
9458.166016	84.517807	-15.5314
9526.704102	84.467285	-15.9073
9595.738281	84.416130	-16.1057
9665.273438	84.375175	-16.2235
9735.311523	84.369240	-16.3104
9805.857422	84.374947	-16.4083
9876.915039	84.380424	-16.6079
9948.487305	84.375069	-16.8120
10020.578125	84.331764	-16.9488
10093.191406	84.288200	-17.0278
10166.331055	84.277939	-16.9993
10240.000000	84.287895	-16.9700
10314.203125	84.323990	-17.0452
10388.944336	84.361832	-17.1832
10464.226562	84.373100	-17.3971
10540.054688	84.375008	-17.6257
10616.432617	84.370392	-17.7839
10693.363281	84.374924	-17.9548
10770.852539	84.418228	-18.1953
10848.902344	84.461800	-18.5032
10927.517578	84.472870	-18.9346
11006.703125	84.462112	-19.3707
11086.461914	84.418755	-19.6931
11166.798828	84.375198	-19.9537
11247.718750	84.369553	-20.1474
11329.223633	84.374962	-20.3311
11411.320312	84.375000	-20.5708
11494.011719	84.375000	-20.8345
11577.301758	84.375000	-21.1101
11661.195312	84.374992	-21.4014
11745.697266	84.375000	-21.7076
11830.811523	84.375000	-22.0312
11916.542969	84.375000	-22.3721
12002.894531	84.374992	-22.7360
12089.873047	84.375000	-23.1224
12177.480469	84.375000	-23.5494
12265.723633	84.380424	-24.0496
12354.606445	84.375076	-24.5791
12444.132812	84.337181	-25.1136
12534.308594	84.288277	-25.6263
12625.136719	84.242615	-26.0613
12716.624023	84.201187	-26.4808
12808.773438	84.176697	-26.9374
12901.591797	84.148201	-27.4073
12995.082031	84.091835	-27.8903
13089.250000	84.028320	-28.3677
13184.099609	83.973450	-28.8033
13279.636719	83.919289	-29.2476
13375.867188	83.872421	-29.7832
13472.793945	83.804497	-30.2794
13570.422852	83.660446	-30.5961
13668.759766	83.525688	-30.8397
13767.809570	83.499695	-31.0448
13867.577148	83.489105	-31.2913
13968.067383	83.421043	-31.7316
14069.285156	83.328598	-32.1835
14171.237305	83.207542	-32.4567
14273.927734	83.099487	-32.7195
14377.362305	83.074219	-33.0825
14481.546875	83.044258	-33.5374
14586.486328	82.932693	-34.1873
14692.185547	82.774048	-34.8048
14798.651367	82.561852	-35.1561
14905.888672	82.344215	-35.3562
15013.902344	82.187431	-35.4363
15122.700195	82.031937	-35.4223
15232.285156	81.823830	-35.3534
15342.664062	81.609276	-35.2209
15453.843750	81.440697	-35.0614
15565.829102	81.248177	-34.7790
15678.625000	80.958565	-34.3717
15792.239258	80.630821	-33.5936
15906.675781	80.271164	-32.1102
16021.942383	79.967384	-30.1775
16138.043945	79.826775	-27.8142
16254.986328	79.798866	-25.4075
16372.777344	79.905823	-23.4414
16491.421875	80.034386	-21.6536
16610.923828	80.028137	-19.9584
16731.294922	80.034782	-18.2937
16852.535156	80.180504	-16.5084
16974.656250	80.380692	-14.7860
17097.662109	80.574776	-13.2557
17221.558594	80.811386	-11.9382
17346.353516	81.132187	-10.8333
17472.052734	81.500648	-10.1298
17598.662109	81.917717	-10.0745
17726.189453	82.310890	-10.5012
17854.640625	82.593170	-11.3937
17984.021484	82.806953	-12.5391
18114.341797	82.965240	-13.7272
18245.605469	83.072510	-14.9311
18377.820312	83.132812	-16.0629
18510.994141	83.159920	-17.1002
18645.132812	83.165451	-17.9816
18780.242188	83.160042	-18.7371
18916.332031	83.157135	-19.3601
19053.408203	83.159958	-19.9020
19191.476562	83.175690	-20.3829
19330.546875	83.205795	-20.8910
19470.623047	83.270462	-21.5511
19611.714844	83.320824	-22.2756
19753.830078	83.297356	-23.0427
19896.974609	83.250305	-23.7758
