"Directivity Index"			
"Sound Power DI"		"Early Reflections DI"	
"Frequency [Hz]"	"[dB] Directivity Index "	"Frequency [Hz]"	"[dB] Directivity Index "
20.5078	-4.87924	20.5078	-2.14968
21.9727	-3.57998	21.9727	-1.44932
23.4375	-3.22967	23.4375	-1.26711
24.9023	-2.90344	24.9023	-1.12544
26.3672	-2.24313	26.3672	-0.82552
27.832	-2.3067	27.832	-0.87177
29.2969	-1.94595	29.2969	-0.723599
30.7617	-1.70495	30.7617	-0.631376
32.2266	-1.53317	32.2266	-0.563437
33.6914	-1.38912	33.6914	-0.507881
35.1562	-1.2471	35.1562	-0.456021
36.6211	-1.11512	36.6211	-0.406711
38.0859	-1.00623	38.0859	-0.366143
39.5508	-0.903433	39.5508	-0.328451
41.0156	-0.826335	41.0156	-0.300258
42.4805	-0.738279	42.4805	-0.269202
43.9453	-0.669528	43.9453	-0.244469
45.4102	-0.615234	45.4102	-0.225816
46.875	-0.571061	46.875	-0.210583
48.3398	-0.485989	48.3398	-0.179139
51.2695	-0.377914	51.2695	-0.138039
52.7344	-0.340095	52.7344	-0.124411
54.1992	-0.278652	54.1992	-0.102021
55.6641	-0.250369	55.6641	-0.0930724
58.5938	-0.197614	58.5938	-0.0741063
60.0586	-0.155197	60.0586	-0.0578326
62.9883	-0.0989485	62.9883	-0.034691
64.4531	-0.068231	64.4531	-0.0224988
67.3828	-0.0570982	67.3828	-0.0169751
68.8477	-0.0563551	68.8477	-0.0147901
71.7773	0.0183886	71.7773	0.0142872
74.707	0.0306947	74.707	0.0169769
77.6367	0.076391	77.6367	0.0373439
79.1016	0.0919974	79.1016	0.044909
82.0312	0.121026	82.0312	0.0579084
84.9609	0.140802	84.9609	0.06714
87.8906	0.167397	87.8906	0.0799903
90.8203	0.180443	90.8203	0.0872898
95.2148	0.245066	95.2148	0.115301
98.1445	0.213239	98.1445	0.104495
101.074	0.213294	101.074	0.107904
105.469	0.436738	105.469	0.196981
108.398	0.499611	108.398	0.212671
112.793	0.451444	112.793	0.197738
117.188	0.450927	117.188	0.205645
120.117	0.48317	120.117	0.216719
124.512	0.476673	124.512	0.228481
128.906	0.525928	128.906	0.248867
133.301	0.634646	133.301	0.294069
139.16	0.689829	139.16	0.326797
143.555	0.713095	143.555	0.340066
147.949	0.696759	147.949	0.347312
153.809	0.868247	153.809	0.434865
159.668	0.936364	159.668	0.448962
165.527	0.918609	165.527	0.453856
171.387	1.11285	171.387	0.523792
177.246	1.13096	177.246	0.527452
183.105	1.14077	183.105	0.551028
188.965	1.22704	188.965	0.601325
196.289	1.33867	196.289	0.678216
203.613	1.81708	203.613	0.828239
210.938	1.71996	210.938	0.736292
218.262	1.57132	218.262	0.750158
225.586	1.85327	225.586	0.874128
232.91	2.19828	232.91	0.977697
241.699	2.1663	241.699	0.887024
250.488	2.39183	250.488	1.05125
259.277	2.42513	259.277	1.04002
268.066	2.29654	268.066	1.01348
276.855	2.24763	276.855	0.949141
287.109	2.42065	287.109	1.02428
297.363	3.1133	297.363	1.3078
307.617	3.01629	307.617	1.14901
319.336	3.17373	319.336	1.23763
329.59	3.13109	329.59	1.12634
341.309	3.25538	341.309	1.24161
353.027	2.91912	353.027	0.861798
366.211	2.97721	366.211	0.900977
379.395	2.9278	379.395	0.7975
392.578	2.50693	392.578	0.572923
405.762	2.87585	405.762	0.829342
420.41	3.09041	420.41	0.947045
435.059	2.94112	435.059	0.953158
451.172	2.66283	451.172	0.567533
465.82	3.36165	465.82	1.32306
483.398	3.53038	483.398	1.47382
499.512	4.13941	499.512	1.72245
517.09	3.73711	517.09	1.40379
536.133	4.18649	536.133	1.64708
555.176	4.30521	555.176	1.61235
574.219	4.09853	574.219	1.46467
594.727	4.44596	594.727	1.71122
615.234	4.30249	615.234	1.72882
637.207	4.32668	637.207	1.8373
659.18	4.53398	659.18	1.72546
682.617	4.47458	682.617	1.7765
707.52	4.1371	707.52	1.64946
732.422	4.44953	732.422	1.76468
757.324	4.56388	757.324	1.92547
785.156	4.75779	785.156	2.20463
811.523	5.0642	811.523	2.31522
840.82	5.22409	840.82	2.3043
870.117	5.29269	870.117	2.37234
900.879	5.10062	900.879	2.28272
933.105	5.80642	933.105	2.56909
965.332	5.63204	965.332	2.58873
1,000.49	5.46459	1,000.49	2.23974
1,035.64	5.29926	1,035.64	2.22152
1,072.27	5.01333	1,072.27	2.08841
1,108.89	5.33933	1,108.89	2.36696
1,148.44	5.72974	1,148.44	2.37459
1,189.45	6.07098	1,189.45	2.71334
1,230.47	6.73691	1,230.47	2.79384
1,274.41	6.85357	1,274.41	2.81933
1,319.82	6.88377	1,319.82	2.94361
1,366.7	7.45992	1,366.7	3.25866
1,413.57	7.78514	1,413.57	3.36292
1,463.38	7.35717	1,463.38	3.00843
1,516.11	7.03408	1,516.11	2.88128
1,568.85	7.3569	1,568.85	3.22155
1,624.51	7.73218	1,624.51	3.40236
1,681.64	8.05723	1,681.64	3.77018
1,741.7	7.96157	1,741.7	3.47136
1,803.22	7.85912	1,803.22	3.46302
1,866.21	7.19774	1,866.21	3.18307
1,932.13	6.95204	1,932.13	3.16472
1,999.51	7.29499	1,999.51	3.33884
2,069.82	7.38444	2,069.82	3.29215
2,143.07	7.2925	2,143.07	3.25512
2,219.24	7.00009	2,219.24	3.14182
2,296.88	6.66607	2,296.88	2.84768
2,378.91	7.29278	2,378.91	3.1311
2,462.4	7.91123	2,462.4	3.34668
2,548.83	7.71892	2,548.83	3.281
2,639.65	6.90065	2,639.65	2.85139
2,731.93	6.82162	2,731.93	2.79307
2,828.61	7.27285	2,828.61	3.02364
2,928.22	7.53568	2,928.22	3.17909
3,030.76	7.48354	3,030.76	3.15549
3,137.7	7.53312	3,137.7	3.19017
3,249.02	7.45746	3,249.02	3.14787
3,363.28	7.56731	3,363.28	3.28447
3,481.93	7.31782	3,481.93	3.18223
3,604.98	7.14706	3,604.98	2.99057
3,732.42	7.5965	3,732.42	3.1867
3,864.26	7.24174	3,864.26	2.86493
4,000.49	7.35396	4,000.49	2.88713
4,141.11	7.46837	4,141.11	2.98395
4,287.6	7.33852	4,287.6	2.98131
4,438.48	7.27688	4,438.48	2.96522
4,595.21	7.26929	4,595.21	3.03237
4,756.35	7.57601	4,756.35	3.12782
4,924.8	7.33234	4,924.8	2.97384
5,097.66	7.45347	5,097.66	2.9948
5,277.83	7.26133	5,277.83	2.90199
5,463.87	7.22662	5,463.87	2.85293
5,657.23	7.31796	5,657.23	2.91657
5,856.45	7.37158	5,856.45	3.03173
6,062.99	7.54078	6,062.99	3.0715
6,276.86	7.47102	6,276.86	3.02805
6,498.05	7.56529	6,498.05	3.09794
6,726.56	7.7354	6,726.56	3.24653
6,963.87	7.80364	6,963.87	3.17483
7,209.96	7.81693	7,209.96	3.2312
7,464.84	7.68696	7,464.84	3.14649
7,727.05	7.91181	7,727.05	3.25555
7,999.51	7.79335	7,999.51	3.27759
8,282.23	7.8882	8,282.23	3.27121
8,573.73	8.10798	8,573.73	3.41825
8,876.95	8.08985	8,876.95	3.38625
9,188.96	7.97187	9,188.96	3.37432
9,514.16	7.92721	9,514.16	3.29434
9,849.61	7.80453	9,849.61	3.17248
10,196.8	7.62677	10,196.8	2.95595
10,555.7	7.44579	10,555.7	2.83684
10,927.7	7.18902	10,927.7	2.68599
11,313	7.05029	11,313	2.65436
11,712.9	7.09808	11,712.9	2.69867
12,126	7.22449	12,126	2.79792
12,553.7	7.34844	12,553.7	2.88184
12,996.1	7.42899	12,996.1	2.88741
13,454.6	7.53703	13,454.6	2.97105
13,929.2	7.67852	13,929.2	3.03799
14,419.9	7.80588	14,419.9	3.11573
14,928.2	7.94804	14,928.2	3.23139
15,455.6	7.9961	15,455.6	3.30386
16,000.5	8.1084	16,000.5	3.38274
16,564.5	8.22035	16,564.5	3.44649
17,148.9	8.42168	17,148.9	3.56349
17,752.4	8.2198	17,752.4	3.42508
18,379.4	7.99916	18,379.4	3.27022
19,026.9	8.00865	19,026.9	3.27632
19,697.8	8.2118	19,697.8	3.38387
19,999.5	8.37337	19,999.5	3.45194
